"Sub.Num","Months","Tr.Num","stimuli","experiment","age_code","hearing_status_participant","Prescreen.Notes","language_modality","trial_type","RT","age_years","RT_sec","correct"
"30004","349","2","V1","ASl","adult","deaf","","ASL","C_T","1633",29.0833333333333,1.633,1
"30004","349","3","V1","ASl","adult","deaf","","ASL","C_T","1167",29.0833333333333,1.167,1
"30004","349","4","V1","ASl","adult","deaf","","ASL","C_T","700",29.0833333333333,0.7,1
"30004","349","5","V1","ASl","adult","deaf","","ASL","C_T","833",29.0833333333333,0.833,1
"30004","349","6","V1","ASl","adult","deaf","","ASL","C_T","967",29.0833333333333,0.967,1
"30004","349","7","V1","ASl","adult","deaf","","ASL","C_T","700",29.0833333333333,0.7,1
"30004","349","8","V1","ASl","adult","deaf","","ASL","C_T","233",29.0833333333333,0.233,1
"30004","349","9","V1","ASl","adult","deaf","","ASL","C_T","933",29.0833333333333,0.933,1
"30004","349","10","V1","ASl","adult","deaf","","ASL","C_T","1800",29.0833333333333,1.8,1
"30004","349","11","V1","ASl","adult","deaf","","ASL","C_T","967",29.0833333333333,0.967,1
"30004","349","12","V1","ASl","adult","deaf","","ASL","C_T","1033",29.0833333333333,1.033,1
"30004","349","13","V1","ASl","adult","deaf","","ASL","C_T","933",29.0833333333333,0.933,1
"30004","349","14","V1","ASl","adult","deaf","","ASL","C_T","933",29.0833333333333,0.933,1
"30004","349","15","V1","ASl","adult","deaf","","ASL","C_T","1933",29.0833333333333,1.933,1
"30004","349","16","V1","ASl","adult","deaf","","ASL","C_T","2367",29.0833333333333,2.367,1
"30004","349","17","V1","ASl","adult","deaf","","ASL","no_shift",NA,29.0833333333333,NA,0
"30004","349","18","V1","ASl","adult","deaf","","ASL","no_shift",NA,29.0833333333333,NA,0
"30004","349","19","V1","ASl","adult","deaf","","ASL","C_T","567",29.0833333333333,0.567,1
"30004","349","21","V1","ASl","adult","deaf","","ASL","C_T","1133",29.0833333333333,1.133,1
"30004","349","22","V1","ASl","adult","deaf","","ASL","C_T","1833",29.0833333333333,1.833,1
"30004","349","23","V1","ASl","adult","deaf","","ASL","C_T","767",29.0833333333333,0.767,1
"30004","349","24","V1","ASl","adult","deaf","","ASL","C_T","1200",29.0833333333333,1.2,1
"30004","349","25","V1","ASl","adult","deaf","","ASL","C_T","1000",29.0833333333333,1,1
"30004","349","26","V1","ASl","adult","deaf","","ASL","C_T","1233",29.0833333333333,1.233,1
"30004","349","27","V1","ASl","adult","deaf","","ASL","C_T","800",29.0833333333333,0.8,1
"30004","349","28","V1","ASl","adult","deaf","","ASL","C_T","1000",29.0833333333333,1,1
"30004","349","29","V1","ASl","adult","deaf","","ASL","C_T","1867",29.0833333333333,1.867,1
"30004","349","30","V1","ASl","adult","deaf","","ASL","C_T","1267",29.0833333333333,1.267,1
"30004","349","31","V1","ASl","adult","deaf","","ASL","C_T","1000",29.0833333333333,1,1
"30004","349","32","V1","ASl","adult","deaf","","ASL","C_T","1067",29.0833333333333,1.067,1
"30004","349","34","V1","ASl","adult","deaf","","ASL","C_T","1133",29.0833333333333,1.133,1
"30004","349","35","V1","ASl","adult","deaf","","ASL","C_T","1067",29.0833333333333,1.067,1
"30004","349","36","V1","ASl","adult","deaf","","ASL","C_T","733",29.0833333333333,0.733,1
"30004","349","37","V1","ASl","adult","deaf","","ASL","no_shift",NA,29.0833333333333,NA,0
"30004","349","38","V1","ASl","adult","deaf","","ASL","C_D","800",29.0833333333333,0.8,0
"30004","349","39","V1","ASl","adult","deaf","","ASL","C_T","1433",29.0833333333333,1.433,1
"30004","349","40","V1","ASl","adult","deaf","","ASL","C_T","867",29.0833333333333,0.867,1
"30004","349","41","V1","ASl","adult","deaf","","ASL","C_T","767",29.0833333333333,0.767,1
"30004","349","42","V1","ASl","adult","deaf","","ASL","C_T","700",29.0833333333333,0.7,1
"30004","349","43","V1","ASl","adult","deaf","","ASL","C_T","600",29.0833333333333,0.6,1
"30005","575","2","V1","ASl","adult","deaf","","ASL","C_D","767",47.9166666666667,0.767,0
"30005","575","3","V1","ASl","adult","deaf","","ASL","C_T","633",47.9166666666667,0.633,1
"30005","575","4","V1","ASl","adult","deaf","","ASL","C_D","767",47.9166666666667,0.767,0
"30005","575","5","V1","ASl","adult","deaf","","ASL","C_T","633",47.9166666666667,0.633,1
"30005","575","6","V1","ASl","adult","deaf","","ASL","C_T","633",47.9166666666667,0.633,1
"30005","575","7","V1","ASl","adult","deaf","","ASL","C_T","533",47.9166666666667,0.533,1
"30005","575","8","V1","ASl","adult","deaf","","ASL","C_T","633",47.9166666666667,0.633,1
"30005","575","9","V1","ASl","adult","deaf","","ASL","C_T","700",47.9166666666667,0.7,1
"30005","575","10","V1","ASl","adult","deaf","","ASL","C_T","400",47.9166666666667,0.4,1
"30005","575","11","V1","ASl","adult","deaf","","ASL","C_T","733",47.9166666666667,0.733,1
"30005","575","12","V1","ASl","adult","deaf","","ASL","C_T","700",47.9166666666667,0.7,1
"30005","575","13","V1","ASl","adult","deaf","","ASL","C_T","567",47.9166666666667,0.567,1
"30005","575","14","V1","ASl","adult","deaf","","ASL","C_T","600",47.9166666666667,0.6,1
"30005","575","15","V1","ASl","adult","deaf","","ASL","C_T","800",47.9166666666667,0.8,1
"30005","575","16","V1","ASl","adult","deaf","","ASL","C_T","600",47.9166666666667,0.6,1
"30005","575","17","V1","ASl","adult","deaf","","ASL","C_T","667",47.9166666666667,0.667,1
"30005","575","19","V1","ASl","adult","deaf","","ASL","C_T","633",47.9166666666667,0.633,1
"30005","575","20","V1","ASl","adult","deaf","","ASL","C_T","667",47.9166666666667,0.667,1
"30005","575","21","V1","ASl","adult","deaf","","ASL","C_T","1100",47.9166666666667,1.1,1
"30005","575","22","V1","ASl","adult","deaf","","ASL","C_T","800",47.9166666666667,0.8,1
"30005","575","23","V1","ASl","adult","deaf","","ASL","C_T","700",47.9166666666667,0.7,1
"30005","575","24","V1","ASl","adult","deaf","","ASL","C_T","967",47.9166666666667,0.967,1
"30005","575","25","V1","ASl","adult","deaf","","ASL","C_T","2233",47.9166666666667,2.233,1
"30005","575","26","V1","ASl","adult","deaf","","ASL","C_T","1100",47.9166666666667,1.1,1
"30005","575","27","V1","ASl","adult","deaf","","ASL","C_T","433",47.9166666666667,0.433,1
"30005","575","28","V1","ASl","adult","deaf","","ASL","C_T","333",47.9166666666667,0.333,1
"30005","575","29","V1","ASl","adult","deaf","","ASL","C_T","600",47.9166666666667,0.6,1
"30005","575","30","V1","ASl","adult","deaf","","ASL","C_T","400",47.9166666666667,0.4,1
"30005","575","32","V1","ASl","adult","deaf","","ASL","C_T","667",47.9166666666667,0.667,1
"30005","575","33","V1","ASl","adult","deaf","","ASL","C_T","700",47.9166666666667,0.7,1
"30005","575","34","V1","ASl","adult","deaf","","ASL","C_T","867",47.9166666666667,0.867,1
"30005","575","35","V1","ASl","adult","deaf","","ASL","C_T","1133",47.9166666666667,1.133,1
"30005","575","36","V1","ASl","adult","deaf","","ASL","C_T","367",47.9166666666667,0.367,1
"30005","575","37","V1","ASl","adult","deaf","","ASL","C_D","533",47.9166666666667,0.533,0
"30005","575","38","V1","ASl","adult","deaf","","ASL","C_T","367",47.9166666666667,0.367,1
"30005","575","39","V1","ASl","adult","deaf","","ASL","C_T","700",47.9166666666667,0.7,1
"30006","575","2","V1","ASl","adult","deaf","","ASL","C_T","767",47.9166666666667,0.767,1
"30006","575","3","V1","ASl","adult","deaf","","ASL","C_T","867",47.9166666666667,0.867,1
"30006","575","4","V1","ASl","adult","deaf","","ASL","C_T","933",47.9166666666667,0.933,1
"30006","575","5","V1","ASl","adult","deaf","","ASL","C_T","2700",47.9166666666667,2.7,1
"30006","575","6","V1","ASl","adult","deaf","","ASL","C_T","1400",47.9166666666667,1.4,1
"30006","575","7","V1","ASl","adult","deaf","","ASL","C_T","1133",47.9166666666667,1.133,1
"30006","575","8","V1","ASl","adult","deaf","","ASL","C_T","433",47.9166666666667,0.433,1
"30006","575","9","V1","ASl","adult","deaf","","ASL","no_shift","2900",47.9166666666667,2.9,0
"30006","575","10","V1","ASl","adult","deaf","","ASL","C_T","967",47.9166666666667,0.967,1
"30006","575","11","V1","ASl","adult","deaf","","ASL","C_T","1300",47.9166666666667,1.3,1
"30006","575","12","V1","ASl","adult","deaf","","ASL","C_T","2200",47.9166666666667,2.2,1
"30006","575","13","V1","ASl","adult","deaf","","ASL","C_T","767",47.9166666666667,0.767,1
"30006","575","14","V1","ASl","adult","deaf","","ASL","C_T","900",47.9166666666667,0.9,1
"30006","575","15","V1","ASl","adult","deaf","","ASL","C_T","400",47.9166666666667,0.4,1
"30006","575","16","V1","ASl","adult","deaf","","ASL","C_T","800",47.9166666666667,0.8,1
"30006","575","17","V1","ASl","adult","deaf","","ASL","C_T","2633",47.9166666666667,2.633,1
"30006","575","19","V1","ASl","adult","deaf","","ASL","C_T","1000",47.9166666666667,1,1
"30006","575","20","V1","ASl","adult","deaf","","ASL","no_shift",NA,47.9166666666667,NA,0
"30006","575","21","V1","ASl","adult","deaf","","ASL","C_T","1067",47.9166666666667,1.067,1
"30006","575","22","V1","ASl","adult","deaf","","ASL","C_T","800",47.9166666666667,0.8,1
"30006","575","23","V1","ASl","adult","deaf","","ASL","C_T","1367",47.9166666666667,1.367,1
"30006","575","24","V1","ASl","adult","deaf","","ASL","no_shift",NA,47.9166666666667,NA,0
"30006","575","25","V1","ASl","adult","deaf","","ASL","C_T","1667",47.9166666666667,1.667,1
"30006","575","26","V1","ASl","adult","deaf","","ASL","C_T","1033",47.9166666666667,1.033,1
"30006","575","27","V1","ASl","adult","deaf","","ASL","C_T","1733",47.9166666666667,1.733,1
"30006","575","28","V1","ASl","adult","deaf","","ASL","no_shift",NA,47.9166666666667,NA,0
"30006","575","29","V1","ASl","adult","deaf","","ASL","C_T","233",47.9166666666667,0.233,1
"30006","575","30","V1","ASl","adult","deaf","","ASL","C_T","767",47.9166666666667,0.767,1
"30006","575","32","V1","ASl","adult","deaf","","ASL","C_T","1867",47.9166666666667,1.867,1
"30006","575","33","V1","ASl","adult","deaf","","ASL","C_T","1067",47.9166666666667,1.067,1
"30006","575","34","V1","ASl","adult","deaf","","ASL","C_T","1700",47.9166666666667,1.7,1
"30006","575","35","V1","ASl","adult","deaf","","ASL","C_T","1600",47.9166666666667,1.6,1
"30006","575","36","V1","ASl","adult","deaf","","ASL","no_shift",NA,47.9166666666667,NA,0
"30006","575","37","V1","ASl","adult","deaf","","ASL","C_T","1500",47.9166666666667,1.5,1
"30006","575","38","V1","ASl","adult","deaf","","ASL","C_T","1100",47.9166666666667,1.1,1
"30006","575","39","V1","ASl","adult","deaf","","ASL","C_D","1567",47.9166666666667,1.567,0
"30007","695","2","V1","ASl","adult","deaf","","ASL","C_T","767",57.9166666666667,0.767,1
"30007","695","3","V1","ASl","adult","deaf","","ASL","C_T","400",57.9166666666667,0.4,1
"30007","695","4","V1","ASl","adult","deaf","","ASL","C_T","833",57.9166666666667,0.833,1
"30007","695","5","V1","ASl","adult","deaf","","ASL","C_T","567",57.9166666666667,0.567,1
"30007","695","6","V1","ASl","adult","deaf","","ASL","C_T","333",57.9166666666667,0.333,1
"30007","695","7","V1","ASl","adult","deaf","","ASL","C_T","700",57.9166666666667,0.7,1
"30007","695","8","V1","ASl","adult","deaf","","ASL","C_T","400",57.9166666666667,0.4,1
"30007","695","9","V1","ASl","adult","deaf","","ASL","C_T","400",57.9166666666667,0.4,1
"30007","695","10","V1","ASl","adult","deaf","","ASL","C_T","200",57.9166666666667,0.2,1
"30007","695","11","V1","ASl","adult","deaf","","ASL","C_T","467",57.9166666666667,0.467,1
"30007","695","12","V1","ASl","adult","deaf","","ASL","C_T","267",57.9166666666667,0.267,1
"30007","695","13","V1","ASl","adult","deaf","","ASL","C_T","633",57.9166666666667,0.633,1
"30007","695","14","V1","ASl","adult","deaf","","ASL","C_T","633",57.9166666666667,0.633,1
"30007","695","15","V1","ASl","adult","deaf","","ASL","C_T","300",57.9166666666667,0.3,1
"30007","695","16","V1","ASl","adult","deaf","","ASL","C_T","300",57.9166666666667,0.3,1
"30007","695","17","V1","ASl","adult","deaf","","ASL","C_T","367",57.9166666666667,0.367,1
"30007","695","19","V1","ASl","adult","deaf","","ASL","C_T","267",57.9166666666667,0.267,1
"30007","695","20","V1","ASl","adult","deaf","","ASL","C_T","233",57.9166666666667,0.233,1
"30007","695","21","V1","ASl","adult","deaf","","ASL","C_T","533",57.9166666666667,0.533,1
"30007","695","22","V1","ASl","adult","deaf","","ASL","C_T","567",57.9166666666667,0.567,1
"30007","695","23","V1","ASl","adult","deaf","","ASL","C_T","300",57.9166666666667,0.3,1
"30007","695","24","V1","ASl","adult","deaf","","ASL","C_T","267",57.9166666666667,0.267,1
"30007","695","25","V1","ASl","adult","deaf","","ASL","C_T","400",57.9166666666667,0.4,1
"30007","695","26","V1","ASl","adult","deaf","","ASL","C_T","267",57.9166666666667,0.267,1
"30007","695","27","V1","ASl","adult","deaf","","ASL","C_T","200",57.9166666666667,0.2,1
"30007","695","28","V1","ASl","adult","deaf","","ASL","C_T","467",57.9166666666667,0.467,1
"30010","44","2","V1","ASl","child","hearing","","ASL","C_T","1133",3.66666666666667,1.133,1
"30010","44","3","V1","ASl","child","hearing","","ASL","C_T","1000",3.66666666666667,1,1
"30010","44","4","V1","ASl","child","hearing","","ASL","C_T","1333",3.66666666666667,1.333,1
"30010","44","5","V1","ASl","child","hearing","","ASL","C_T","967",3.66666666666667,0.967,1
"30010","44","6","V1","ASl","child","hearing","","ASL","C_T","1000",3.66666666666667,1,1
"30010","44","7","V1","ASl","child","hearing","","ASL","C_T","1133",3.66666666666667,1.133,1
"30010","44","8","V1","ASl","child","hearing","","ASL","C_D","933",3.66666666666667,0.933,0
"30010","44","9","V1","ASl","child","hearing","","ASL","C_D","1400",3.66666666666667,1.4,0
"30010","44","11","V1","ASl","child","hearing","","ASL","C_T","1567",3.66666666666667,1.567,1
"30010","44","12","V1","ASl","child","hearing","","ASL","C_T","1433",3.66666666666667,1.433,1
"30010","44","13","V1","ASl","child","hearing","","ASL","C_T","767",3.66666666666667,0.767,1
"30010","44","14","V1","ASl","child","hearing","","ASL","C_T","1433",3.66666666666667,1.433,1
"30010","44","15","V1","ASl","child","hearing","","ASL","C_D","867",3.66666666666667,0.867,0
"30010","44","16","V1","ASl","child","hearing","","ASL","C_T","1200",3.66666666666667,1.2,1
"30010","44","17","V1","ASl","child","hearing","","ASL","C_T","1300",3.66666666666667,1.3,1
"30010","44","18","V1","ASl","child","hearing","","ASL","C_T","2000",3.66666666666667,2,1
"30010","44","20","V1","ASl","child","hearing","","ASL","C_T","700",3.66666666666667,0.7,1
"30010","44","21","V1","ASl","child","hearing","","ASL","no_shift","633",3.66666666666667,0.633,0
"30010","44","24","V1","ASl","child","hearing","","ASL","C_T","933",3.66666666666667,0.933,1
"30010","44","26","V1","ASl","child","hearing","","ASL","C_D","2333",3.66666666666667,2.333,0
"30010","44","27","V1","ASl","child","hearing","","ASL","C_D","2033",3.66666666666667,2.033,0
"30010","44","30","V1","ASl","child","hearing","","ASL","C_T","900",3.66666666666667,0.9,1
"30010","44","31","V1","ASl","child","hearing","","ASL","C_D","1133",3.66666666666667,1.133,0
"30010","44","33","V1","ASl","child","hearing","","ASL","C_T","833",3.66666666666667,0.833,1
"30010","44","34","V1","ASl","child","hearing","","ASL","C_T","2867",3.66666666666667,2.867,1
"30010","44","35","V1","ASl","child","hearing","","ASL","C_T","1367",3.66666666666667,1.367,1
"30010","44","36","V1","ASl","child","hearing","","ASL","C_T","1267",3.66666666666667,1.267,1
"30011","16","2","V1","ASl","child","deaf","","ASL","C_T","1633",1.33333333333333,1.633,1
"30011","16","3","V1","ASl","child","deaf","","ASL","C_D","1467",1.33333333333333,1.467,0
"30011","16","4","V1","ASl","child","deaf","","ASL","C_T","2200",1.33333333333333,2.2,1
"30011","16","5","V1","ASl","child","deaf","","ASL","C_T","1633",1.33333333333333,1.633,1
"30011","16","6","V1","ASl","child","deaf","","ASL","no_shift",NA,1.33333333333333,NA,0
"30011","16","7","V1","ASl","child","deaf","","ASL","no_shift","1867",1.33333333333333,1.867,0
"30011","16","9","V1","ASl","child","deaf","","ASL","no_shift",NA,1.33333333333333,NA,0
"30014","33","2","V1","ASl","child","deaf","","ASL","no_shift",NA,2.75,NA,0
"30014","33","7","V1","ASl","child","deaf","","ASL","C_T","1167",2.75,1.167,1
"30014","33","12","V1","ASl","child","deaf","","ASL","C_D","2533",2.75,2.533,0
"30014","33","14","V1","ASl","child","deaf","","ASL","C_T","1633",2.75,1.633,1
"30014","33","15","V1","ASl","child","deaf","","ASL","C_D","533",2.75,0.533,0
"30014","33","16","V1","ASl","child","deaf","","ASL","no_shift",NA,2.75,NA,0
"30014","33","18","V1","ASl","child","deaf","","ASL","C_T","1800",2.75,1.8,1
"30014","33","20","V1","ASl","child","deaf","","ASL","C_T","1200",2.75,1.2,1
"30014","33","21","V1","ASl","child","deaf","","ASL","no_shift",NA,2.75,NA,0
"30014","33","22","V1","ASl","child","deaf","","ASL","C_T","1367",2.75,1.367,1
"30014","33","23","V1","ASl","child","deaf","","ASL","C_T","1333",2.75,1.333,1
"30014","33","25","V1","ASl","child","deaf","","ASL","C_T","1033",2.75,1.033,1
"30014","33","26","V1","ASl","child","deaf","","ASL","C_T","633",2.75,0.633,1
"30014","33","27","V1","ASl","child","deaf","","ASL","C_D","2400",2.75,2.4,0
"30014","33","31","V1","ASl","child","deaf","","ASL","C_T","1367",2.75,1.367,1
"30014","33","34","V1","ASl","child","deaf","","ASL","C_D","1600",2.75,1.6,0
"30014","33","36","V1","ASl","child","deaf","","ASL","C_T","1300",2.75,1.3,1
"30015","21","2","V1","ASl","child","deaf","","ASL","C_T","1633",1.75,1.633,1
"30015","21","3","V1","ASl","child","deaf","","ASL","C_D","1300",1.75,1.3,0
"30015","21","4","V1","ASl","child","deaf","","ASL","no_shift",NA,1.75,NA,0
"30015","21","9","V1","ASl","child","deaf","","ASL","C_D","1200",1.75,1.2,0
"30015","21","13","V1","ASl","child","deaf","","ASL","C_T","33",1.75,0.033,1
"30015","21","18","V1","ASl","child","deaf","","ASL","C_T","800",1.75,0.8,1
"30015","21","26","V1","ASl","child","deaf","","ASL","C_T","1467",1.75,1.467,1
"30015","21","32","V1","ASl","child","deaf","","ASL","C_T","1133",1.75,1.133,1
"30015","21","33","V1","ASl","child","deaf","","ASL","C_T","333",1.75,0.333,1
"30018","18","2","V1","ASl","child","hearing","","ASL","C_D","1133",1.5,1.133,0
"30018","18","3","V1","ASl","child","hearing","","ASL","no_shift","2967",1.5,2.967,0
"30018","18","4","V1","ASl","child","hearing","","ASL","C_T","1300",1.5,1.3,1
"30018","18","5","V1","ASl","child","hearing","","ASL","C_D","967",1.5,0.967,0
"30018","18","6","V1","ASl","child","hearing","","ASL","C_D","1000",1.5,1,0
"30018","18","7","V1","ASl","child","hearing","","ASL","C_D","1067",1.5,1.067,0
"30018","18","8","V1","ASl","child","hearing","","ASL","C_T","1367",1.5,1.367,1
"30018","18","9","V1","ASl","child","hearing","","ASL","C_T","700",1.5,0.7,1
"30018","18","12","V1","ASl","child","hearing","","ASL","C_D","767",1.5,0.767,0
"30018","18","13","V1","ASl","child","hearing","","ASL","C_T","600",1.5,0.6,1
"30018","18","14","V1","ASl","child","hearing","","ASL","C_T","1033",1.5,1.033,1
"30018","18","15","V1","ASl","child","hearing","","ASL","C_T","667",1.5,0.667,1
"30018","18","16","V1","ASl","child","hearing","","ASL","C_D","1233",1.5,1.233,0
"30018","18","17","V1","ASl","child","hearing","","ASL","C_T","700",1.5,0.7,1
"30018","18","18","V1","ASl","child","hearing","","ASL","C_T","967",1.5,0.967,1
"30018","18","20","V1","ASl","child","hearing","","ASL","C_D","800",1.5,0.8,0
"30018","18","21","V1","ASl","child","hearing","","ASL","C_D","1133",1.5,1.133,0
"30018","18","22","V1","ASl","child","hearing","","ASL","C_T","800",1.5,0.8,1
"30018","18","23","V1","ASl","child","hearing","","ASL","C_D","767",1.5,0.767,0
"30018","18","24","V1","ASl","child","hearing","","ASL","C_D","867",1.5,0.867,0
"30018","18","25","V1","ASl","child","hearing","","ASL","C_T","733",1.5,0.733,1
"30018","18","26","V1","ASl","child","hearing","","ASL","C_D","567",1.5,0.567,0
"30018","18","27","V1","ASl","child","hearing","","ASL","C_T","1200",1.5,1.2,1
"30018","18","29","V1","ASl","child","hearing","","ASL","C_T","1033",1.5,1.033,1
"30018","18","30","V1","ASl","child","hearing","","ASL","C_T","700",1.5,0.7,1
"30018","18","31","V1","ASl","child","hearing","","ASL","C_D","667",1.5,0.667,0
"30018","18","32","V1","ASl","child","hearing","","ASL","C_T","767",1.5,0.767,1
"30018","18","33","V1","ASl","child","hearing","","ASL","C_D","1000",1.5,1,0
"30018","18","34","V1","ASl","child","hearing","","ASL","C_T","867",1.5,0.867,1
"30019","29","2","V1","ASl","child","deaf","","ASL","no_shift",NA,2.41666666666667,NA,0
"30019","29","3","V1","ASl","child","deaf","","ASL","C_T","1233",2.41666666666667,1.233,1
"30019","29","4","V1","ASl","child","deaf","","ASL","no_shift",NA,2.41666666666667,NA,0
"30019","29","5","V1","ASl","child","deaf","","ASL","C_T","933",2.41666666666667,0.933,1
"30019","29","6","V1","ASl","child","deaf","","ASL","C_T","933",2.41666666666667,0.933,1
"30019","29","7","V1","ASl","child","deaf","","ASL","C_T","900",2.41666666666667,0.9,1
"30019","29","8","V1","ASl","child","deaf","","ASL","C_T","1333",2.41666666666667,1.333,1
"30019","29","11","V1","ASl","child","deaf","","ASL","C_T","667",2.41666666666667,0.667,1
"30019","29","12","V1","ASl","child","deaf","","ASL","C_T","633",2.41666666666667,0.633,1
"30019","29","13","V1","ASl","child","deaf","","ASL","C_T","567",2.41666666666667,0.567,1
"30019","29","14","V1","ASl","child","deaf","","ASL","C_T","933",2.41666666666667,0.933,1
"30019","29","16","V1","ASl","child","deaf","","ASL","C_D","1167",2.41666666666667,1.167,0
"30019","29","17","V1","ASl","child","deaf","","ASL","C_T","833",2.41666666666667,0.833,1
"30019","29","18","V1","ASl","child","deaf","","ASL","C_T","767",2.41666666666667,0.767,1
"30019","29","20","V1","ASl","child","deaf","","ASL","C_T","800",2.41666666666667,0.8,1
"30019","29","22","V1","ASl","child","deaf","","ASL","C_T","1767",2.41666666666667,1.767,1
"30019","29","23","V1","ASl","child","deaf","","ASL","C_D","767",2.41666666666667,0.767,0
"30019","29","24","V1","ASl","child","deaf","","ASL","C_T","767",2.41666666666667,0.767,1
"30019","29","25","V1","ASl","child","deaf","","ASL","C_T","667",2.41666666666667,0.667,1
"30019","29","26","V1","ASl","child","deaf","","ASL","C_T","767",2.41666666666667,0.767,1
"30019","29","27","V1","ASl","child","deaf","","ASL","C_D","1100",2.41666666666667,1.1,0
"30019","29","30","V1","ASl","child","deaf","","ASL","C_T","967",2.41666666666667,0.967,1
"30019","29","31","V1","ASl","child","deaf","","ASL","C_T","800",2.41666666666667,0.8,1
"30019","29","35","V1","ASl","child","deaf","","ASL","C_D","1200",2.41666666666667,1.2,0
"30021","694","2","V1","ASl","adult","deaf","","ASL","C_T","967",57.8333333333333,0.967,1
"30021","694","3","V1","ASl","adult","deaf","","ASL","C_T","867",57.8333333333333,0.867,1
"30021","694","4","V1","ASl","adult","deaf","","ASL","C_T","833",57.8333333333333,0.833,1
"30021","694","5","V1","ASl","adult","deaf","","ASL","C_T","1067",57.8333333333333,1.067,1
"30021","694","6","V1","ASl","adult","deaf","","ASL","C_T","700",57.8333333333333,0.7,1
"30021","694","7","V1","ASl","adult","deaf","","ASL","C_T","733",57.8333333333333,0.733,1
"30021","694","8","V1","ASl","adult","deaf","","ASL","C_T","867",57.8333333333333,0.867,1
"30021","694","9","V1","ASl","adult","deaf","","ASL","C_T","1167",57.8333333333333,1.167,1
"30021","694","10","V1","ASl","adult","deaf","","ASL","C_T","767",57.8333333333333,0.767,1
"30021","694","11","V1","ASl","adult","deaf","","ASL","C_T","667",57.8333333333333,0.667,1
"30021","694","12","V1","ASl","adult","deaf","","ASL","C_T","1000",57.8333333333333,1,1
"30021","694","13","V1","ASl","adult","deaf","","ASL","C_T","1000",57.8333333333333,1,1
"30021","694","14","V1","ASl","adult","deaf","","ASL","C_T","767",57.8333333333333,0.767,1
"30021","694","15","V1","ASl","adult","deaf","","ASL","C_T","600",57.8333333333333,0.6,1
"30021","694","16","V1","ASl","adult","deaf","","ASL","C_D","733",57.8333333333333,0.733,0
"30021","694","17","V1","ASl","adult","deaf","","ASL","C_T","967",57.8333333333333,0.967,1
"30021","694","19","V1","ASl","adult","deaf","","ASL","C_T","667",57.8333333333333,0.667,1
"30021","694","20","V1","ASl","adult","deaf","","ASL","C_T","600",57.8333333333333,0.6,1
"30021","694","21","V1","ASl","adult","deaf","","ASL","C_T","1333",57.8333333333333,1.333,1
"30021","694","22","V1","ASl","adult","deaf","","ASL","C_T","767",57.8333333333333,0.767,1
"30021","694","23","V1","ASl","adult","deaf","","ASL","C_T","967",57.8333333333333,0.967,1
"30021","694","24","V1","ASl","adult","deaf","","ASL","C_T","767",57.8333333333333,0.767,1
"30021","694","25","V1","ASl","adult","deaf","","ASL","C_T","800",57.8333333333333,0.8,1
"30021","694","26","V1","ASl","adult","deaf","","ASL","C_T","967",57.8333333333333,0.967,1
"30021","694","27","V1","ASl","adult","deaf","","ASL","C_T","567",57.8333333333333,0.567,1
"30021","694","28","V1","ASl","adult","deaf","","ASL","C_T","633",57.8333333333333,0.633,1
"30021","694","29","V1","ASl","adult","deaf","","ASL","C_T","533",57.8333333333333,0.533,1
"30021","694","30","V1","ASl","adult","deaf","","ASL","C_T","867",57.8333333333333,0.867,1
"30021","694","32","V1","ASl","adult","deaf","","ASL","C_T","1100",57.8333333333333,1.1,1
"30021","694","33","V1","ASl","adult","deaf","","ASL","C_T","733",57.8333333333333,0.733,1
"30021","694","34","V1","ASl","adult","deaf","","ASL","C_T","633",57.8333333333333,0.633,1
"30021","694","35","V1","ASl","adult","deaf","","ASL","C_T","1233",57.8333333333333,1.233,1
"30021","694","36","V1","ASl","adult","deaf","","ASL","C_T","767",57.8333333333333,0.767,1
"30021","694","37","V1","ASl","adult","deaf","","ASL","C_T","1033",57.8333333333333,1.033,1
"30021","694","38","V1","ASl","adult","deaf","","ASL","C_T","600",57.8333333333333,0.6,1
"30021","694","39","V1","ASl","adult","deaf","","ASL","C_T","767",57.8333333333333,0.767,1
"30022","350","2","V1","ASl","adult","deaf","","ASL","C_T","667",29.1666666666667,0.667,1
"30022","350","3","V1","ASl","adult","deaf","","ASL","C_T","467",29.1666666666667,0.467,1
"30022","350","4","V1","ASl","adult","deaf","","ASL","C_T","633",29.1666666666667,0.633,1
"30022","350","5","V1","ASl","adult","deaf","","ASL","C_T","967",29.1666666666667,0.967,1
"30022","350","6","V1","ASl","adult","deaf","","ASL","C_T","733",29.1666666666667,0.733,1
"30022","350","7","V1","ASl","adult","deaf","","ASL","C_T","1100",29.1666666666667,1.1,1
"30022","350","8","V1","ASl","adult","deaf","","ASL","C_T","900",29.1666666666667,0.9,1
"30022","350","9","V1","ASl","adult","deaf","","ASL","C_T","633",29.1666666666667,0.633,1
"30022","350","10","V1","ASl","adult","deaf","","ASL","C_T","700",29.1666666666667,0.7,1
"30022","350","11","V1","ASl","adult","deaf","","ASL","C_T","1733",29.1666666666667,1.733,1
"30022","350","12","V1","ASl","adult","deaf","","ASL","C_T","333",29.1666666666667,0.333,1
"30022","350","13","V1","ASl","adult","deaf","","ASL","C_D","800",29.1666666666667,0.8,0
"30022","350","14","V1","ASl","adult","deaf","","ASL","C_T","633",29.1666666666667,0.633,1
"30022","350","15","V1","ASl","adult","deaf","","ASL","C_T","400",29.1666666666667,0.4,1
"30022","350","16","V1","ASl","adult","deaf","","ASL","C_D","667",29.1666666666667,0.667,0
"30022","350","17","V1","ASl","adult","deaf","","ASL","C_T","633",29.1666666666667,0.633,1
"30022","350","19","V1","ASl","adult","deaf","","ASL","C_T","600",29.1666666666667,0.6,1
"30022","350","20","V1","ASl","adult","deaf","","ASL","C_T","1933",29.1666666666667,1.933,1
"30022","350","21","V1","ASl","adult","deaf","","ASL","C_T","1133",29.1666666666667,1.133,1
"30022","350","22","V1","ASl","adult","deaf","","ASL","C_T","433",29.1666666666667,0.433,1
"30022","350","23","V1","ASl","adult","deaf","","ASL","C_T","433",29.1666666666667,0.433,1
"30022","350","24","V1","ASl","adult","deaf","","ASL","C_T","100",29.1666666666667,0.1,1
"30024","21","3","V1","ASl","child","deaf","","ASL","no_shift",NA,1.75,NA,0
"30024","21","4","V1","ASl","child","deaf","","ASL","C_D","1700",1.75,1.7,0
"30024","21","5","V1","ASl","child","deaf","","ASL","C_T","2200",1.75,2.2,1
"30024","21","6","V1","ASl","child","deaf","","ASL","C_T","1200",1.75,1.2,1
"30024","21","7","V1","ASl","child","deaf","","ASL","C_T","1600",1.75,1.6,1
"30024","21","8","V1","ASl","child","deaf","","ASL","C_T","533",1.75,0.533,1
"30024","21","9","V1","ASl","child","deaf","","ASL","C_D","1533",1.75,1.533,0
"30024","21","14","V1","ASl","child","deaf","","ASL","C_T","1067",1.75,1.067,1
"30024","21","15","V1","ASl","child","deaf","","ASL","C_T","733",1.75,0.733,1
"30024","21","16","V1","ASl","child","deaf","","ASL","C_D","1167",1.75,1.167,0
"30024","21","17","V1","ASl","child","deaf","","ASL","C_T","667",1.75,0.667,1
"30024","21","18","V1","ASl","child","deaf","","ASL","C_D","700",1.75,0.7,0
"30024","21","20","V1","ASl","child","deaf","","ASL","C_T","1100",1.75,1.1,1
"30024","21","22","V1","ASl","child","deaf","","ASL","no_shift",NA,1.75,NA,0
"30024","21","23","V1","ASl","child","deaf","","ASL","C_D","567",1.75,0.567,0
"30024","21","27","V1","ASl","child","deaf","","ASL","C_T","967",1.75,0.967,1
"30024","21","29","V1","ASl","child","deaf","","ASL","C_T","733",1.75,0.733,1
"30024","21","30","V1","ASl","child","deaf","","ASL","C_T","1433",1.75,1.433,1
"30024","21","32","V1","ASl","child","deaf","","ASL","C_D","533",1.75,0.533,0
"30024","21","33","V1","ASl","child","deaf","","ASL","C_T","1200",1.75,1.2,1
"30024","21","34","V1","ASl","child","deaf","","ASL","C_D","533",1.75,0.533,0
"30026","36","2","V1","ASl","child","deaf","","ASL","C_T","1267",3,1.267,1
"30026","36","3","V1","ASl","child","deaf","","ASL","C_T","1133",3,1.133,1
"30026","36","4","V1","ASl","child","deaf","","ASL","C_T","1333",3,1.333,1
"30026","36","7","V1","ASl","child","deaf","","ASL","C_T","1133",3,1.133,1
"30026","36","8","V1","ASl","child","deaf","","ASL","C_T","1233",3,1.233,1
"30026","36","9","V1","ASl","child","deaf","","ASL","C_D","1100",3,1.1,0
"30026","36","11","V1","ASl","child","deaf","","ASL","C_T","1100",3,1.1,1
"30026","36","13","V1","ASl","child","deaf","","ASL","C_T","933",3,0.933,1
"30026","36","14","V1","ASl","child","deaf","","ASL","C_T","933",3,0.933,1
"30026","36","15","V1","ASl","child","deaf","","ASL","C_D","800",3,0.8,0
"30026","36","16","V1","ASl","child","deaf","","ASL","C_T","1067",3,1.067,1
"30026","36","18","V1","ASl","child","deaf","","ASL","C_T","1033",3,1.033,1
"30026","36","20","V1","ASl","child","deaf","","ASL","C_T","1867",3,1.867,1
"30026","36","21","V1","ASl","child","deaf","","ASL","C_D","2800",3,2.8,0
"30026","36","22","V1","ASl","child","deaf","","ASL","C_T","1367",3,1.367,1
"30026","36","23","V1","ASl","child","deaf","","ASL","C_T","1433",3,1.433,1
"30026","36","24","V1","ASl","child","deaf","","ASL","C_T","1800",3,1.8,1
"30026","36","25","V1","ASl","child","deaf","","ASL","C_T","633",3,0.633,1
"30026","36","26","V1","ASl","child","deaf","","ASL","C_D","433",3,0.433,0
"30026","36","27","V1","ASl","child","deaf","","ASL","C_T","1267",3,1.267,1
"30026","36","33","V1","ASl","child","deaf","","ASL","C_T","867",3,0.867,1
"30027","379","2","V1","ASl","adult","deaf","","ASL","C_T","1033",31.5833333333333,1.033,1
"30027","379","3","V1","ASl","adult","deaf","","ASL","C_T","900",31.5833333333333,0.9,1
"30027","379","4","V1","ASl","adult","deaf","","ASL","C_T","1000",31.5833333333333,1,1
"30027","379","5","V1","ASl","adult","deaf","","ASL","C_T","1133",31.5833333333333,1.133,1
"30027","379","6","V1","ASl","adult","deaf","","ASL","C_T","900",31.5833333333333,0.9,1
"30027","379","7","V1","ASl","adult","deaf","","ASL","C_T","733",31.5833333333333,0.733,1
"30027","379","8","V1","ASl","adult","deaf","","ASL","C_T","700",31.5833333333333,0.7,1
"30027","379","9","V1","ASl","adult","deaf","","ASL","C_T","533",31.5833333333333,0.533,1
"30027","379","11","V1","ASl","adult","deaf","","ASL","C_T","1133",31.5833333333333,1.133,1
"30027","379","12","V1","ASl","adult","deaf","","ASL","C_T","833",31.5833333333333,0.833,1
"30027","379","13","V1","ASl","adult","deaf","","ASL","C_T","700",31.5833333333333,0.7,1
"30027","379","14","V1","ASl","adult","deaf","","ASL","C_T","1133",31.5833333333333,1.133,1
"30027","379","15","V1","ASl","adult","deaf","","ASL","C_T","400",31.5833333333333,0.4,1
"30027","379","16","V1","ASl","adult","deaf","","ASL","C_D","767",31.5833333333333,0.767,0
"30027","379","17","V1","ASl","adult","deaf","","ASL","C_T","867",31.5833333333333,0.867,1
"30027","379","18","V1","ASl","adult","deaf","","ASL","C_T","633",31.5833333333333,0.633,1
"30027","379","20","V1","ASl","adult","deaf","","ASL","C_T","767",31.5833333333333,0.767,1
"30027","379","21","V1","ASl","adult","deaf","","ASL","C_T","1067",31.5833333333333,1.067,1
"30027","379","22","V1","ASl","adult","deaf","","ASL","C_T","600",31.5833333333333,0.6,1
"30027","379","23","V1","ASl","adult","deaf","","ASL","C_T","600",31.5833333333333,0.6,1
"30027","379","24","V1","ASl","adult","deaf","","ASL","C_T","600",31.5833333333333,0.6,1
"30027","379","25","V1","ASl","adult","deaf","","ASL","C_T","867",31.5833333333333,0.867,1
"30027","379","26","V1","ASl","adult","deaf","","ASL","C_T","467",31.5833333333333,0.467,1
"30027","379","27","V1","ASl","adult","deaf","","ASL","C_T","767",31.5833333333333,0.767,1
"30027","379","29","V1","ASl","adult","deaf","","ASL","C_T","800",31.5833333333333,0.8,1
"30027","379","30","V1","ASl","adult","deaf","","ASL","C_T","600",31.5833333333333,0.6,1
"30027","379","31","V1","ASl","adult","deaf","","ASL","C_T","967",31.5833333333333,0.967,1
"30027","379","32","V1","ASl","adult","deaf","","ASL","C_T","833",31.5833333333333,0.833,1
"30027","379","33","V1","ASl","adult","deaf","","ASL","C_T","1267",31.5833333333333,1.267,1
"30027","379","34","V1","ASl","adult","deaf","","ASL","C_T","600",31.5833333333333,0.6,1
"30027","379","35","V1","ASl","adult","deaf","","ASL","C_T","633",31.5833333333333,0.633,1
"30027","379","36","V1","ASl","adult","deaf","","ASL","C_T","833",31.5833333333333,0.833,1
"30028","27","2","V1","ASl","child","hearing","","ASL","C_T","167",2.25,0.167,1
"30028","27","3","V1","ASl","child","hearing","","ASL","C_T","1733",2.25,1.733,1
"30028","27","4","V1","ASl","child","hearing","","ASL","C_T","800",2.25,0.8,1
"30028","27","6","V1","ASl","child","hearing","","ASL","C_T","900",2.25,0.9,1
"30028","27","7","V1","ASl","child","hearing","","ASL","C_D","1533",2.25,1.533,0
"30028","27","8","V1","ASl","child","hearing","","ASL","C_T","1133",2.25,1.133,1
"30028","27","9","V1","ASl","child","hearing","","ASL","C_D","1200",2.25,1.2,0
"30028","27","17","V1","ASl","child","hearing","","ASL","C_D","67",2.25,0.067,0
"30028","27","18","V1","ASl","child","hearing","","ASL","C_T","1133",2.25,1.133,1
"30028","27","21","V1","ASl","child","hearing","","ASL","C_D","333",2.25,0.333,0
"30028","27","23","V1","ASl","child","hearing","","ASL","C_T","800",2.25,0.8,1
"30028","27","24","V1","ASl","child","hearing","","ASL","C_D","400",2.25,0.4,0
"30029","35","2","V1","ASl","child","deaf","","ASL","C_T","833",2.91666666666667,0.833,1
"30029","35","3","V1","ASl","child","deaf","","ASL","C_T","1267",2.91666666666667,1.267,1
"30029","35","4","V1","ASl","child","deaf","","ASL","C_T","1867",2.91666666666667,1.867,1
"30029","35","5","V1","ASl","child","deaf","","ASL","C_T","1667",2.91666666666667,1.667,1
"30029","35","6","V1","ASl","child","deaf","","ASL","C_T","767",2.91666666666667,0.767,1
"30029","35","7","V1","ASl","child","deaf","","ASL","C_T","1367",2.91666666666667,1.367,1
"30029","35","8","V1","ASl","child","deaf","","ASL","C_T","633",2.91666666666667,0.633,1
"30029","35","9","V1","ASl","child","deaf","","ASL","C_T","1067",2.91666666666667,1.067,1
"30029","35","11","V1","ASl","child","deaf","","ASL","C_T","1533",2.91666666666667,1.533,1
"30029","35","12","V1","ASl","child","deaf","","ASL","C_T","1200",2.91666666666667,1.2,1
"30029","35","13","V1","ASl","child","deaf","","ASL","C_T","700",2.91666666666667,0.7,1
"30029","35","14","V1","ASl","child","deaf","","ASL","C_D","1467",2.91666666666667,1.467,0
"30029","35","15","V1","ASl","child","deaf","","ASL","no_shift",NA,2.91666666666667,NA,0
"30029","35","16","V1","ASl","child","deaf","","ASL","C_D","1000",2.91666666666667,1,0
"30029","35","17","V1","ASl","child","deaf","","ASL","C_T","1133",2.91666666666667,1.133,1
"30029","35","18","V1","ASl","child","deaf","","ASL","C_T","1133",2.91666666666667,1.133,1
"30029","35","20","V1","ASl","child","deaf","","ASL","C_T","767",2.91666666666667,0.767,1
"30029","35","21","V1","ASl","child","deaf","","ASL","C_T","733",2.91666666666667,0.733,1
"30029","35","22","V1","ASl","child","deaf","","ASL","C_T","1633",2.91666666666667,1.633,1
"30029","35","23","V1","ASl","child","deaf","","ASL","C_T","1567",2.91666666666667,1.567,1
"30029","35","24","V1","ASl","child","deaf","","ASL","C_T","1167",2.91666666666667,1.167,1
"30029","35","25","V1","ASl","child","deaf","","ASL","C_T","1033",2.91666666666667,1.033,1
"30029","35","26","V1","ASl","child","deaf","","ASL","C_T","833",2.91666666666667,0.833,1
"30029","35","27","V1","ASl","child","deaf","","ASL","C_D","1300",2.91666666666667,1.3,0
"30029","35","29","V1","ASl","child","deaf","","ASL","C_D","1233",2.91666666666667,1.233,0
"30029","35","30","V1","ASl","child","deaf","","ASL","C_T","867",2.91666666666667,0.867,1
"30029","35","31","V1","ASl","child","deaf","","ASL","C_T","1300",2.91666666666667,1.3,1
"30029","35","33","V1","ASl","child","deaf","","ASL","C_T","1733",2.91666666666667,1.733,1
"30029","35","34","V1","ASl","child","deaf","","ASL","C_T","1333",2.91666666666667,1.333,1
"30029","35","35","V1","ASl","child","deaf","","ASL","C_D","1367",2.91666666666667,1.367,0
"30029","35","36","V1","ASl","child","deaf","","ASL","C_T","867",2.91666666666667,0.867,1
"30036","42","2","V1","ASl","child","deaf","","ASL","C_T","567",3.5,0.567,1
"30036","42","3","V1","ASl","child","deaf","","ASL","C_T","1167",3.5,1.167,1
"30036","42","4","V1","ASl","child","deaf","","ASL","C_T","2000",3.5,2,1
"30036","42","5","V1","ASl","child","deaf","","ASL","C_T","1567",3.5,1.567,1
"30036","42","6","V1","ASl","child","deaf","","ASL","C_T","633",3.5,0.633,1
"30036","42","7","V1","ASl","child","deaf","","ASL","C_T","967",3.5,0.967,1
"30036","42","8","V1","ASl","child","deaf","","ASL","C_D","900",3.5,0.9,0
"30037","21","2","V1","ASl","child","hearing","","ASL","C_T","900",1.75,0.9,1
"30037","21","3","V1","ASl","child","hearing","","ASL","C_D","767",1.75,0.767,0
"30037","21","4","V1","ASl","child","hearing","","ASL","no_shift",NA,1.75,NA,0
"30037","21","5","V1","ASl","child","hearing","","ASL","no_shift",NA,1.75,NA,0
"30037","21","6","V1","ASl","child","hearing","","ASL","C_T","867",1.75,0.867,1
"30037","21","7","V1","ASl","child","hearing","","ASL","C_D","1167",1.75,1.167,0
"30037","21","8","V1","ASl","child","hearing","","ASL","C_D","1267",1.75,1.267,0
"30037","21","9","V1","ASl","child","hearing","","ASL","C_T","700",1.75,0.7,1
"30037","21","16","V1","ASl","child","hearing","","ASL","C_T","933",1.75,0.933,1
"30037","21","18","V1","ASl","child","hearing","","ASL","C_T","600",1.75,0.6,1
"30037","21","20","V1","ASl","child","hearing","","ASL","C_T","1167",1.75,1.167,1
"30037","21","21","V1","ASl","child","hearing","","ASL","C_T","1967",1.75,1.967,1
"30037","21","22","V1","ASl","child","hearing","","ASL","C_T","1567",1.75,1.567,1
"30037","21","23","V1","ASl","child","hearing","","ASL","C_T","2167",1.75,2.167,1
"30037","21","24","V1","ASl","child","hearing","","ASL","C_T","633",1.75,0.633,1
"30037","21","30","V1","ASl","child","hearing","","ASL","C_T","600",1.75,0.6,1
"30038","16","2","V1","ASl","child","hearing","","ASL","C_D","400",1.33333333333333,0.4,0
"30038","16","3","V1","ASl","child","hearing","","ASL","C_T","1700",1.33333333333333,1.7,1
"30038","16","5","V1","ASl","child","hearing","","ASL","C_T","2333",1.33333333333333,2.333,1
"30038","16","11","V1","ASl","child","hearing","","ASL","C_T","1233",1.33333333333333,1.233,1
"30038","16","12","V1","ASl","child","hearing","","ASL","C_T","1067",1.33333333333333,1.067,1
"30038","16","16","V1","ASl","child","hearing","","ASL","no_shift","2967",1.33333333333333,2.967,0
"30038","16","21","V1","ASl","child","hearing","","ASL","C_D","2100",1.33333333333333,2.1,0
"30038","16","33","V1","ASl","child","hearing","","ASL","no_shift",NA,1.33333333333333,NA,0
"30038","16","34","V1","ASl","child","hearing","","ASL","C_T","2167",1.33333333333333,2.167,1
"30038","16","36","V1","ASl","child","hearing","","ASL","C_D","1600",1.33333333333333,1.6,0
"30044","276","2","V1","ASl","adult","deaf","","ASL","C_T","967",23,0.967,1
"30044","276","3","V1","ASl","adult","deaf","","ASL","C_T","767",23,0.767,1
"30044","276","4","V1","ASl","adult","deaf","","ASL","C_T","533",23,0.533,1
"30044","276","5","V1","ASl","adult","deaf","","ASL","C_T","500",23,0.5,1
"30044","276","6","V1","ASl","adult","deaf","","ASL","C_T","800",23,0.8,1
"30044","276","7","V1","ASl","adult","deaf","","ASL","C_T","500",23,0.5,1
"30044","276","8","V1","ASl","adult","deaf","","ASL","C_T","467",23,0.467,1
"30044","276","9","V1","ASl","adult","deaf","","ASL","C_T","500",23,0.5,1
"30044","276","11","V1","ASl","adult","deaf","","ASL","C_T","1000",23,1,1
"30044","276","12","V1","ASl","adult","deaf","","ASL","C_T","600",23,0.6,1
"30044","276","13","V1","ASl","adult","deaf","","ASL","C_T","367",23,0.367,1
"30044","276","14","V1","ASl","adult","deaf","","ASL","C_T","533",23,0.533,1
"30044","276","15","V1","ASl","adult","deaf","","ASL","C_T","367",23,0.367,1
"30044","276","16","V1","ASl","adult","deaf","","ASL","C_T","800",23,0.8,1
"30044","276","17","V1","ASl","adult","deaf","","ASL","C_T","567",23,0.567,1
"30044","276","18","V1","ASl","adult","deaf","","ASL","C_T","667",23,0.667,1
"30044","276","20","V1","ASl","adult","deaf","","ASL","C_T","533",23,0.533,1
"30044","276","21","V1","ASl","adult","deaf","","ASL","C_T","600",23,0.6,1
"30044","276","22","V1","ASl","adult","deaf","","ASL","C_T","500",23,0.5,1
"30044","276","23","V1","ASl","adult","deaf","","ASL","C_T","367",23,0.367,1
"30044","276","24","V1","ASl","adult","deaf","","ASL","C_T","500",23,0.5,1
"30044","276","25","V1","ASl","adult","deaf","","ASL","C_T","400",23,0.4,1
"30044","276","26","V1","ASl","adult","deaf","","ASL","C_T","267",23,0.267,1
"30044","276","27","V1","ASl","adult","deaf","","ASL","C_T","867",23,0.867,1
"30044","276","29","V1","ASl","adult","deaf","","ASL","C_T","600",23,0.6,1
"30044","276","30","V1","ASl","adult","deaf","","ASL","C_T","400",23,0.4,1
"30044","276","31","V1","ASl","adult","deaf","","ASL","C_T","533",23,0.533,1
"30044","276","32","V1","ASl","adult","deaf","","ASL","C_T","267",23,0.267,1
"30044","276","33","V1","ASl","adult","deaf","","ASL","C_T","433",23,0.433,1
"30044","276","34","V1","ASl","adult","deaf","","ASL","C_T","200",23,0.2,1
"30044","276","35","V1","ASl","adult","deaf","","ASL","C_T","533",23,0.533,1
"30044","276","36","V1","ASl","adult","deaf","","ASL","C_T","533",23,0.533,1
"30046","22","2","V1","ASl","child","hearing","","ASL","C_T","1333",1.83333333333333,1.333,1
"30046","22","3","V1","ASl","child","hearing","","ASL","C_T","1967",1.83333333333333,1.967,1
"30046","22","4","V1","ASl","child","hearing","","ASL","C_D","2200",1.83333333333333,2.2,0
"30046","22","5","V1","ASl","child","hearing","","ASL","C_D","833",1.83333333333333,0.833,0
"30046","22","6","V1","ASl","child","hearing","","ASL","C_T","1467",1.83333333333333,1.467,1
"30046","22","7","V1","ASl","child","hearing","","ASL","C_T","1233",1.83333333333333,1.233,1
"30046","22","8","V1","ASl","child","hearing","","ASL","C_T","1700",1.83333333333333,1.7,1
"30046","22","9","V1","ASl","child","hearing","","ASL","C_T","1633",1.83333333333333,1.633,1
"30046","22","11","V1","ASl","child","hearing","","ASL","C_T","1400",1.83333333333333,1.4,1
"30046","22","13","V1","ASl","child","hearing","","ASL","no_shift",NA,1.83333333333333,NA,0
"30046","22","14","V1","ASl","child","hearing","","ASL","C_D","1300",1.83333333333333,1.3,0
"30046","22","15","V1","ASl","child","hearing","","ASL","C_D","600",1.83333333333333,0.6,0
"30046","22","16","V1","ASl","child","hearing","","ASL","C_T","1067",1.83333333333333,1.067,1
"30046","22","17","V1","ASl","child","hearing","","ASL","C_T","700",1.83333333333333,0.7,1
"30046","22","18","V1","ASl","child","hearing","","ASL","C_T","333",1.83333333333333,0.333,1
"30046","22","20","V1","ASl","child","hearing","","ASL","C_T","767",1.83333333333333,0.767,1
"30048","19","2","V1","ASl","child","deaf","","ASL","C_T","1100",1.58333333333333,1.1,1
"30048","19","3","V1","ASl","child","deaf","","ASL","C_T","1433",1.58333333333333,1.433,1
"30048","19","4","V1","ASl","child","deaf","","ASL","C_T","1067",1.58333333333333,1.067,1
"30048","19","5","V1","ASl","child","deaf","","ASL","C_D","867",1.58333333333333,0.867,0
"30048","19","6","V1","ASl","child","deaf","","ASL","C_T","1233",1.58333333333333,1.233,1
"30048","19","7","V1","ASl","child","deaf","","ASL","C_D","1167",1.58333333333333,1.167,0
"30048","19","9","V1","ASl","child","deaf","","ASL","C_T","2267",1.58333333333333,2.267,1
"30048","19","11","V1","ASl","child","deaf","","ASL","C_T","1100",1.58333333333333,1.1,1
"30048","19","12","V1","ASl","child","deaf","","ASL","C_T","2400",1.58333333333333,2.4,1
"30048","19","13","V1","ASl","child","deaf","","ASL","C_T","667",1.58333333333333,0.667,1
"30048","19","14","V1","ASl","child","deaf","","ASL","no_shift","2500",1.58333333333333,2.5,0
"30048","19","18","V1","ASl","child","deaf","","ASL","C_T","1500",1.58333333333333,1.5,1
"30048","19","20","V1","ASl","child","deaf","","ASL","C_T","1333",1.58333333333333,1.333,1
"30048","19","21","V1","ASl","child","deaf","","ASL","C_T","1100",1.58333333333333,1.1,1
"30048","19","23","V1","ASl","child","deaf","","ASL","C_T","700",1.58333333333333,0.7,1
"30048","19","24","V1","ASl","child","deaf","","ASL","C_T","1133",1.58333333333333,1.133,1
"30048","19","26","V1","ASl","child","deaf","","ASL","C_T","2400",1.58333333333333,2.4,1
"30048","19","29","V1","ASl","child","deaf","","ASL","C_T","1300",1.58333333333333,1.3,1
"30048","19","31","V1","ASl","child","deaf","","ASL","C_T","2500",1.58333333333333,2.5,1
"30048","19","32","V1","ASl","child","deaf","","ASL","C_T","800",1.58333333333333,0.8,1
"30048","19","34","V1","ASl","child","deaf","","ASL","C_T","1500",1.58333333333333,1.5,1
"30048","19","36","V1","ASl","child","deaf","","ASL","C_T","1300",1.58333333333333,1.3,1
"30059","575","2","V1","ASl","adult","deaf","","ASL","C_D","800",47.9166666666667,0.8,0
"30059","575","3","V1","ASl","adult","deaf","","ASL","C_T","600",47.9166666666667,0.6,1
"30059","575","4","V1","ASl","adult","deaf","","ASL","C_T","700",47.9166666666667,0.7,1
"30059","575","5","V1","ASl","adult","deaf","","ASL","C_T","1033",47.9166666666667,1.033,1
"30059","575","6","V1","ASl","adult","deaf","","ASL","C_T","600",47.9166666666667,0.6,1
"30059","575","7","V1","ASl","adult","deaf","","ASL","C_T","1100",47.9166666666667,1.1,1
"30059","575","8","V1","ASl","adult","deaf","","ASL","C_T","500",47.9166666666667,0.5,1
"30059","575","9","V1","ASl","adult","deaf","","ASL","C_T","700",47.9166666666667,0.7,1
"30059","575","10","V1","ASl","adult","deaf","","ASL","C_T","133",47.9166666666667,0.133,1
"30059","575","11","V1","ASl","adult","deaf","","ASL","C_T","467",47.9166666666667,0.467,1
"30059","575","12","V1","ASl","adult","deaf","","ASL","C_T","500",47.9166666666667,0.5,1
"30059","575","13","V1","ASl","adult","deaf","","ASL","C_T","800",47.9166666666667,0.8,1
"30059","575","14","V1","ASl","adult","deaf","","ASL","C_T","667",47.9166666666667,0.667,1
"30059","575","15","V1","ASl","adult","deaf","","ASL","C_T","467",47.9166666666667,0.467,1
"30059","575","16","V1","ASl","adult","deaf","","ASL","C_T","1167",47.9166666666667,1.167,1
"30059","575","17","V1","ASl","adult","deaf","","ASL","C_D","767",47.9166666666667,0.767,0
"30059","575","19","V1","ASl","adult","deaf","","ASL","C_T","567",47.9166666666667,0.567,1
"30059","575","20","V1","ASl","adult","deaf","","ASL","C_T","667",47.9166666666667,0.667,1
"30059","575","21","V1","ASl","adult","deaf","","ASL","C_T","1133",47.9166666666667,1.133,1
"30059","575","22","V1","ASl","adult","deaf","","ASL","C_T","567",47.9166666666667,0.567,1
"30059","575","23","V1","ASl","adult","deaf","","ASL","C_T","800",47.9166666666667,0.8,1
"30059","575","24","V1","ASl","adult","deaf","","ASL","C_T","467",47.9166666666667,0.467,1
"30059","575","25","V1","ASl","adult","deaf","","ASL","C_T","333",47.9166666666667,0.333,1
"30059","575","26","V1","ASl","adult","deaf","","ASL","C_T","833",47.9166666666667,0.833,1
"30059","575","27","V1","ASl","adult","deaf","","ASL","C_T","900",47.9166666666667,0.9,1
"30059","575","28","V1","ASl","adult","deaf","","ASL","C_T","1033",47.9166666666667,1.033,1
"30059","575","29","V1","ASl","adult","deaf","","ASL","C_T","367",47.9166666666667,0.367,1
"30059","575","30","V1","ASl","adult","deaf","","ASL","C_T","700",47.9166666666667,0.7,1
"30059","575","32","V1","ASl","adult","deaf","","ASL","C_T","933",47.9166666666667,0.933,1
"30059","575","33","V1","ASl","adult","deaf","","ASL","C_T","300",47.9166666666667,0.3,1
"30059","575","34","V1","ASl","adult","deaf","","ASL","C_T","167",47.9166666666667,0.167,1
"30059","575","35","V1","ASl","adult","deaf","","ASL","C_T","733",47.9166666666667,0.733,1
"30059","575","36","V1","ASl","adult","deaf","","ASL","C_T","633",47.9166666666667,0.633,1
"30059","575","37","V1","ASl","adult","deaf","","ASL","C_T","600",47.9166666666667,0.6,1
"30059","575","38","V1","ASl","adult","deaf","","ASL","C_T","533",47.9166666666667,0.533,1
"30059","575","39","V1","ASl","adult","deaf","","ASL","C_T","600",47.9166666666667,0.6,1
"30060","246","2","V1","ASl","adult","hearing","","ASL","C_T","733",20.5,0.733,1
"30060","246","3","V1","ASl","adult","hearing","","ASL","C_T","733",20.5,0.733,1
"30060","246","4","V1","ASl","adult","hearing","","ASL","C_T","700",20.5,0.7,1
"30060","246","5","V1","ASl","adult","hearing","","ASL","C_T","467",20.5,0.467,1
"30060","246","6","V1","ASl","adult","hearing","","ASL","C_T","567",20.5,0.567,1
"30060","246","7","V1","ASl","adult","hearing","","ASL","C_T","600",20.5,0.6,1
"30060","246","8","V1","ASl","adult","hearing","","ASL","C_T","367",20.5,0.367,1
"30060","246","9","V1","ASl","adult","hearing","","ASL","C_T","767",20.5,0.767,1
"30060","246","10","V1","ASl","adult","hearing","","ASL","C_T","833",20.5,0.833,1
"30060","246","11","V1","ASl","adult","hearing","","ASL","C_T","533",20.5,0.533,1
"30060","246","12","V1","ASl","adult","hearing","","ASL","C_T","333",20.5,0.333,1
"30060","246","13","V1","ASl","adult","hearing","","ASL","C_T","633",20.5,0.633,1
"30060","246","14","V1","ASl","adult","hearing","","ASL","C_T","633",20.5,0.633,1
"30060","246","15","V1","ASl","adult","hearing","","ASL","C_T","667",20.5,0.667,1
"30060","246","16","V1","ASl","adult","hearing","","ASL","C_T","267",20.5,0.267,1
"30060","246","17","V1","ASl","adult","hearing","","ASL","C_T","600",20.5,0.6,1
"30060","246","19","V1","ASl","adult","hearing","","ASL","C_T","567",20.5,0.567,1
"30060","246","20","V1","ASl","adult","hearing","","ASL","C_T","667",20.5,0.667,1
"30060","246","21","V1","ASl","adult","hearing","","ASL","C_T","633",20.5,0.633,1
"30060","246","22","V1","ASl","adult","hearing","","ASL","C_T","567",20.5,0.567,1
"30060","246","23","V1","ASl","adult","hearing","","ASL","C_T","633",20.5,0.633,1
"30060","246","24","V1","ASl","adult","hearing","","ASL","C_T","467",20.5,0.467,1
"30060","246","25","V1","ASl","adult","hearing","","ASL","C_T","800",20.5,0.8,1
"30060","246","26","V1","ASl","adult","hearing","","ASL","C_T","700",20.5,0.7,1
"30060","246","27","V1","ASl","adult","hearing","","ASL","C_T","367",20.5,0.367,1
"30060","246","28","V1","ASl","adult","hearing","","ASL","C_T","433",20.5,0.433,1
"30060","246","29","V1","ASl","adult","hearing","","ASL","C_T","300",20.5,0.3,1
"30060","246","30","V1","ASl","adult","hearing","","ASL","C_T","633",20.5,0.633,1
"30060","246","32","V1","ASl","adult","hearing","","ASL","C_T","500",20.5,0.5,1
"30060","246","33","V1","ASl","adult","hearing","","ASL","C_T","167",20.5,0.167,1
"30060","246","34","V1","ASl","adult","hearing","","ASL","C_T","433",20.5,0.433,1
"30060","246","35","V1","ASl","adult","hearing","","ASL","C_T","733",20.5,0.733,1
"30060","246","36","V1","ASl","adult","hearing","","ASL","C_T","300",20.5,0.3,1
"30060","246","37","V1","ASl","adult","hearing","","ASL","C_D","433",20.5,0.433,0
"30060","246","38","V1","ASl","adult","hearing","","ASL","C_T","233",20.5,0.233,1
"30060","246","39","V1","ASl","adult","hearing","","ASL","C_T","500",20.5,0.5,1
"30036","42","2","V1","ASl","child","deaf","","ASL","C_T","800",3.5,0.8,1
"30036","42","3","V1","ASl","child","deaf","","ASL","C_T","1000",3.5,1,1
"30036","42","4","V1","ASl","child","deaf","","ASL","C_T","1967",3.5,1.967,1
"30036","42","5","V1","ASl","child","deaf","","ASL","C_T","1633",3.5,1.633,1
"30036","42","6","V1","ASl","child","deaf","","ASL","C_T","767",3.5,0.767,1
"30036","42","7","V1","ASl","child","deaf","","ASL","C_T","900",3.5,0.9,1
"30036","42","8","V1","ASl","child","deaf","","ASL","C_D","700",3.5,0.7,0
"30036","42","9","V1","ASl","child","deaf","","ASL","C_T","700",3.5,0.7,1
"30036","42","11","V1","ASl","child","deaf","","ASL","C_T","1433",3.5,1.433,1
"30036","42","12","V1","ASl","child","deaf","","ASL","C_D","567",3.5,0.567,0
"30036","42","13","V1","ASl","child","deaf","","ASL","C_T","333",3.5,0.333,1
"30036","42","14","V1","ASl","child","deaf","","ASL","C_T","1800",3.5,1.8,1
"30036","42","16","V1","ASl","child","deaf","","ASL","C_D","400",3.5,0.4,0
"30036","42","17","V1","ASl","child","deaf","","ASL","C_T","567",3.5,0.567,1
"30013","31","2","V2","ASl","child","deaf","","ASL","C_T","2800",2.58333333333333,2.8,1
"30013","31","3","V2","ASl","child","deaf","","ASL","C_T","2300",2.58333333333333,2.3,1
"30013","31","7","V2","ASl","child","deaf","","ASL","C_T","2867",2.58333333333333,2.867,1
"30013","31","12","V2","ASl","child","deaf","","ASL","C_T","1200",2.58333333333333,1.2,1
"30013","31","13","V2","ASl","child","deaf","","ASL","C_T","2167",2.58333333333333,2.167,1
"30013","31","16","V2","ASl","child","deaf","","ASL","no_shift",NA,2.58333333333333,NA,0
"30013","31","17","V2","ASl","child","deaf","","ASL","C_T","2733",2.58333333333333,2.733,1
"30013","31","21","V2","ASl","child","deaf","","ASL","no_shift",NA,2.58333333333333,NA,0
"30013","31","23","V2","ASl","child","deaf","","ASL","C_T","900",2.58333333333333,0.9,1
"30013","31","26","V2","ASl","child","deaf","","ASL","C_T","2467",2.58333333333333,2.467,1
"30013","31","27","V2","ASl","child","deaf","","ASL","C_T","2633",2.58333333333333,2.633,1
"30013","31","32","V2","ASl","child","deaf","","ASL","C_T","1167",2.58333333333333,1.167,1
"30013","31","34","V2","ASl","child","deaf","","ASL","C_T","1433",2.58333333333333,1.433,1
"30013","31","36","V2","ASl","child","deaf","","ASL","C_T","1000",2.58333333333333,1,1
"30017","35","2","V2","ASl","child","deaf","","ASL","C_T","933",2.91666666666667,0.933,1
"30017","35","3","V2","ASl","child","deaf","","ASL","C_T","900",2.91666666666667,0.9,1
"30017","35","4","V2","ASl","child","deaf","","ASL","C_T","1033",2.91666666666667,1.033,1
"30017","35","5","V2","ASl","child","deaf","","ASL","C_T","1267",2.91666666666667,1.267,1
"30017","35","6","V2","ASl","child","deaf","","ASL","C_T","1133",2.91666666666667,1.133,1
"30017","35","7","V2","ASl","child","deaf","","ASL","C_T","1300",2.91666666666667,1.3,1
"30017","35","8","V2","ASl","child","deaf","","ASL","C_D","933",2.91666666666667,0.933,0
"30017","35","9","V2","ASl","child","deaf","","ASL","C_T","1733",2.91666666666667,1.733,1
"30017","35","11","V2","ASl","child","deaf","","ASL","C_T","1033",2.91666666666667,1.033,1
"30017","35","12","V2","ASl","child","deaf","","ASL","C_T","1600",2.91666666666667,1.6,1
"30017","35","13","V2","ASl","child","deaf","","ASL","C_T","767",2.91666666666667,0.767,1
"30017","35","14","V2","ASl","child","deaf","","ASL","C_D","100",2.91666666666667,0.1,0
"30017","35","15","V2","ASl","child","deaf","","ASL","C_D","833",2.91666666666667,0.833,0
"30017","35","16","V2","ASl","child","deaf","","ASL","C_T","1333",2.91666666666667,1.333,1
"30017","35","17","V2","ASl","child","deaf","","ASL","C_T","900",2.91666666666667,0.9,1
"30017","35","23","V2","ASl","child","deaf","","ASL","C_T","833",2.91666666666667,0.833,1
"30017","35","24","V2","ASl","child","deaf","","ASL","C_D","2167",2.91666666666667,2.167,0
"30017","35","26","V2","ASl","child","deaf","","ASL","C_D","1900",2.91666666666667,1.9,0
"30017","35","27","V2","ASl","child","deaf","","ASL","C_T","1900",2.91666666666667,1.9,1
"30017","35","30","V2","ASl","child","deaf","","ASL","C_D","1700",2.91666666666667,1.7,0
"30017","35","31","V2","ASl","child","deaf","","ASL","C_T","2200",2.91666666666667,2.2,1
"30017","35","33","V2","ASl","child","deaf","","ASL","C_T","1033",2.91666666666667,1.033,1
"30025","26","2","V2","ASl","child","hearing","","ASL","C_T","1567",2.16666666666667,1.567,1
"30025","26","3","V2","ASl","child","hearing","","ASL","C_T","2100",2.16666666666667,2.1,1
"30025","26","4","V2","ASl","child","hearing","","ASL","C_D","167",2.16666666666667,0.167,0
"30025","26","7","V2","ASl","child","hearing","","ASL","C_T","1367",2.16666666666667,1.367,1
"30025","26","8","V2","ASl","child","hearing","","ASL","C_T","2867",2.16666666666667,2.867,1
"30025","26","11","V2","ASl","child","hearing","","ASL","no_shift",NA,2.16666666666667,NA,0
"30025","26","12","V2","ASl","child","hearing","","ASL","C_T","1800",2.16666666666667,1.8,1
"30025","26","14","V2","ASl","child","hearing","","ASL","C_T","400",2.16666666666667,0.4,1
"30025","26","15","V2","ASl","child","hearing","","ASL","C_T","1200",2.16666666666667,1.2,1
"30025","26","16","V2","ASl","child","hearing","","ASL","C_D","100",2.16666666666667,0.1,0
"30025","26","23","V2","ASl","child","hearing","","ASL","C_T","600",2.16666666666667,0.6,1
"30025","26","24","V2","ASl","child","hearing","","ASL","C_D","2633",2.16666666666667,2.633,0
"30025","26","25","V2","ASl","child","hearing","","ASL","C_T","1300",2.16666666666667,1.3,1
"30025","26","26","V2","ASl","child","hearing","","ASL","C_T","1000",2.16666666666667,1,1
"30025","26","27","V2","ASl","child","hearing","","ASL","C_T","1033",2.16666666666667,1.033,1
"30049","33","2","V2","ASl","child","deaf","","ASL","C_T","1600",2.75,1.6,1
"30049","33","3","V2","ASl","child","deaf","","ASL","C_T","1533",2.75,1.533,1
"30049","33","4","V2","ASl","child","deaf","","ASL","C_D","633",2.75,0.633,0
"30049","33","7","V2","ASl","child","deaf","","ASL","C_T","1400",2.75,1.4,1
"30049","33","9","V2","ASl","child","deaf","","ASL","C_T","1633",2.75,1.633,1
"30049","33","12","V2","ASl","child","deaf","","ASL","C_T","1200",2.75,1.2,1
"30049","33","13","V2","ASl","child","deaf","","ASL","C_T","1033",2.75,1.033,1
"30049","33","14","V2","ASl","child","deaf","","ASL","C_T","2033",2.75,2.033,1
"30049","33","15","V2","ASl","child","deaf","","ASL","no_shift",NA,2.75,NA,0
"30049","33","17","V2","ASl","child","deaf","","ASL","C_T","1467",2.75,1.467,1
"30049","33","18","V2","ASl","child","deaf","","ASL","C_T","1067",2.75,1.067,1
"30049","33","20","V2","ASl","child","deaf","","ASL","C_T","767",2.75,0.767,1
"30049","33","21","V2","ASl","child","deaf","","ASL","C_T","1467",2.75,1.467,1
"30049","33","22","V2","ASl","child","deaf","","ASL","C_T","1033",2.75,1.033,1
"30049","33","23","V2","ASl","child","deaf","","ASL","C_T","833",2.75,0.833,1
"30049","33","27","V2","ASl","child","deaf","","ASL","C_T","1433",2.75,1.433,1
"30049","33","29","V2","ASl","child","deaf","","ASL","C_D","2600",2.75,2.6,0
"30049","33","30","V2","ASl","child","deaf","","ASL","C_T","1200",2.75,1.2,1
"30049","33","31","V2","ASl","child","deaf","","ASL","no_shift",NA,2.75,NA,0
"30049","33","32","V2","ASl","child","deaf","","ASL","C_T","1133",2.75,1.133,1
"30050","18","2","V2","ASl","child","hearing","","ASL","C_D","1467",1.5,1.467,0
"30050","18","3","V2","ASl","child","hearing","","ASL","C_T","333",1.5,0.333,1
"30050","18","4","V2","ASl","child","hearing","","ASL","C_D","467",1.5,0.467,0
"30050","18","5","V2","ASl","child","hearing","","ASL","C_T","467",1.5,0.467,1
"30050","18","6","V2","ASl","child","hearing","","ASL","no_shift",NA,1.5,NA,0
"30050","18","8","V2","ASl","child","hearing","","ASL","no_shift",NA,1.5,NA,0
"30050","18","9","V2","ASl","child","hearing","","ASL","no_shift",NA,1.5,NA,0
"30050","18","14","V2","ASl","child","hearing","","ASL","C_T","1900",1.5,1.9,1
"30050","18","30","V2","ASl","child","hearing","","ASL","C_T","133",1.5,0.133,1
"30050","18","32","V2","ASl","child","hearing","","ASL","no_shift",NA,1.5,NA,0
"30051","25","2","V2","ASl","child","deaf","","ASL","C_T","1267",2.08333333333333,1.267,1
"30051","25","5","V2","ASl","child","deaf","","ASL","C_D","1667",2.08333333333333,1.667,0
"30051","25","6","V2","ASl","child","deaf","","ASL","C_D","233",2.08333333333333,0.233,0
"30051","25","8","V2","ASl","child","deaf","","ASL","C_T","1533",2.08333333333333,1.533,1
"30051","25","9","V2","ASl","child","deaf","","ASL","C_T","1633",2.08333333333333,1.633,1
"30051","25","12","V2","ASl","child","deaf","","ASL","C_D","2000",2.08333333333333,2,0
"30051","25","16","V2","ASl","child","deaf","","ASL","no_shift",NA,2.08333333333333,NA,0
"30051","25","21","V2","ASl","child","deaf","","ASL","C_D","567",2.08333333333333,0.567,0
"30051","25","22","V2","ASl","child","deaf","","ASL","C_T","1367",2.08333333333333,1.367,1
"30051","25","23","V2","ASl","child","deaf","","ASL","C_D","1200",2.08333333333333,1.2,0
"30051","25","29","V2","ASl","child","deaf","","ASL","C_D","367",2.08333333333333,0.367,0
"30051","25","31","V2","ASl","child","deaf","","ASL","C_D","100",2.08333333333333,0.1,0
"30051","25","36","V2","ASl","child","deaf","","ASL","C_T","2300",2.08333333333333,2.3,1
"30052","28","2","V2","ASl","child","deaf","","ASL","no_shift",NA,2.33333333333333,NA,0
"30052","28","3","V2","ASl","child","deaf","","ASL","C_T","1800",2.33333333333333,1.8,1
"30052","28","4","V2","ASl","child","deaf","","ASL","C_T","1133",2.33333333333333,1.133,1
"30052","28","5","V2","ASl","child","deaf","","ASL","no_shift",NA,2.33333333333333,NA,0
"30052","28","6","V2","ASl","child","deaf","","ASL","C_T","967",2.33333333333333,0.967,1
"30052","28","7","V2","ASl","child","deaf","","ASL","C_T","1200",2.33333333333333,1.2,1
"30052","28","8","V2","ASl","child","deaf","","ASL","no_shift",NA,2.33333333333333,NA,0
"30052","28","9","V2","ASl","child","deaf","","ASL","C_T","967",2.33333333333333,0.967,1
"30052","28","11","V2","ASl","child","deaf","","ASL","C_T","1167",2.33333333333333,1.167,1
"30052","28","12","V2","ASl","child","deaf","","ASL","C_T","1000",2.33333333333333,1,1
"30052","28","13","V2","ASl","child","deaf","","ASL","C_T","2967",2.33333333333333,2.967,1
"30052","28","14","V2","ASl","child","deaf","","ASL","C_T","2067",2.33333333333333,2.067,1
"30052","28","15","V2","ASl","child","deaf","","ASL","C_T","900",2.33333333333333,0.9,1
"30052","28","17","V2","ASl","child","deaf","","ASL","C_T","1733",2.33333333333333,1.733,1
"30052","28","18","V2","ASl","child","deaf","","ASL","no_shift",NA,2.33333333333333,NA,0
"30052","28","20","V2","ASl","child","deaf","","ASL","C_D","1467",2.33333333333333,1.467,0
"30052","28","27","V2","ASl","child","deaf","","ASL","C_D","967",2.33333333333333,0.967,0
"30052","28","29","V2","ASl","child","deaf","","ASL","C_T","1433",2.33333333333333,1.433,1
"30052","28","31","V2","ASl","child","deaf","","ASL","C_D","933",2.33333333333333,0.933,0
"30052","28","35","V2","ASl","child","deaf","","ASL","C_T","1833",2.33333333333333,1.833,1
"30066","35","2","V2","ASl","child","hearing","","ASL","C_T","300",2.91666666666667,0.3,1
"30066","35","4","V2","ASl","child","hearing","","ASL","C_T","1300",2.91666666666667,1.3,1
"30066","35","5","V2","ASl","child","hearing","","ASL","C_D","300",2.91666666666667,0.3,0
"30066","35","6","V2","ASl","child","hearing","","ASL","C_T","1500",2.91666666666667,1.5,1
"30066","35","7","V2","ASl","child","hearing","","ASL","C_D","633",2.91666666666667,0.633,0
"30066","35","8","V2","ASl","child","hearing","","ASL","C_T","1600",2.91666666666667,1.6,1
"30066","35","9","V2","ASl","child","hearing","","ASL","C_T","1233",2.91666666666667,1.233,1
"30066","35","11","V2","ASl","child","hearing","","ASL","C_T","1067",2.91666666666667,1.067,1
"30066","35","13","V2","ASl","child","hearing","","ASL","C_D","867",2.91666666666667,0.867,0
"30066","35","15","V2","ASl","child","hearing","","ASL","C_T","1267",2.91666666666667,1.267,1
"30066","35","16","V2","ASl","child","hearing","","ASL","C_T","1900",2.91666666666667,1.9,1
"30066","35","17","V2","ASl","child","hearing","","ASL","C_T","1000",2.91666666666667,1,1
"30066","35","18","V2","ASl","child","hearing","","ASL","C_D","2000",2.91666666666667,2,0
"30066","35","20","V2","ASl","child","hearing","","ASL","no_shift",NA,2.91666666666667,NA,0
"30066","35","21","V2","ASl","child","hearing","","ASL","no_shift",NA,2.91666666666667,NA,0
"30066","35","24","V2","ASl","child","hearing","","ASL","C_D","833",2.91666666666667,0.833,0
"30066","35","25","V2","ASl","child","hearing","","ASL","C_T","1367",2.91666666666667,1.367,1
"30066","35","27","V2","ASl","child","hearing","","ASL","C_T","2233",2.91666666666667,2.233,1
"30066","35","31","V2","ASl","child","hearing","","ASL","C_T","1100",2.91666666666667,1.1,1
"30066","35","32","V2","ASl","child","hearing","","ASL","C_T","1167",2.91666666666667,1.167,1
"30066","35","33","V2","ASl","child","hearing","","ASL","C_T","1800",2.91666666666667,1.8,1
"30066","35","34","V2","ASl","child","hearing","","ASL","C_T","1133",2.91666666666667,1.133,1
"30066","35","35","V2","ASl","child","hearing","","ASL","C_T","1033",2.91666666666667,1.033,1
"30068","53","2","V2","ASl","child","hearing","","ASL","C_T","933",4.41666666666667,0.933,1
"30068","53","3","V2","ASl","child","hearing","","ASL","C_D","2267",4.41666666666667,2.267,0
"30068","53","6","V2","ASl","child","hearing","","ASL","C_D","767",4.41666666666667,0.767,0
"30068","53","9","V2","ASl","child","hearing","","ASL","C_T","1433",4.41666666666667,1.433,1
"30068","53","11","V2","ASl","child","hearing","","ASL","C_T","1067",4.41666666666667,1.067,1
"30068","53","12","V2","ASl","child","hearing","","ASL","no_shift",NA,4.41666666666667,NA,0
"30068","53","14","V2","ASl","child","hearing","","ASL","C_T","1600",4.41666666666667,1.6,1
"30068","53","20","V2","ASl","child","hearing","","ASL","C_D","700",4.41666666666667,0.7,0
"30068","53","21","V2","ASl","child","hearing","","ASL","C_T","1067",4.41666666666667,1.067,1
"30068","53","22","V2","ASl","child","hearing","","ASL","C_T","1033",4.41666666666667,1.033,1
"30068","53","23","V2","ASl","child","hearing","","ASL","C_T","967",4.41666666666667,0.967,1
"30068","53","24","V2","ASl","child","hearing","","ASL","C_T","633",4.41666666666667,0.633,1
"30068","53","27","V2","ASl","child","hearing","","ASL","C_T","1000",4.41666666666667,1,1
"30068","53","29","V2","ASl","child","hearing","","ASL","C_T","1200",4.41666666666667,1.2,1
"30068","53","30","V2","ASl","child","hearing","","ASL","C_T","1033",4.41666666666667,1.033,1
"30068","53","32","V2","ASl","child","hearing","","ASL","C_D","900",4.41666666666667,0.9,0
"30068","53","33","V2","ASl","child","hearing","","ASL","C_T","1933",4.41666666666667,1.933,1
"30068","53","34","V2","ASl","child","hearing","","ASL","C_T","1467",4.41666666666667,1.467,1
"30068","53","35","V2","ASl","child","hearing","","ASL","C_T","800",4.41666666666667,0.8,1
"30068","53","36","V2","ASl","child","hearing","","ASL","C_T","833",4.41666666666667,0.833,1
"30069","295","2","V2","ASl","adult",NA,"","ASL","C_T","1500",24.5833333333333,1.5,1
"30069","295","3","V2","ASl","adult",NA,"","ASL","C_T","833",24.5833333333333,0.833,1
"30069","295","4","V2","ASl","adult",NA,"","ASL","C_T","2500",24.5833333333333,2.5,1
"30069","295","5","V2","ASl","adult",NA,"","ASL","C_T","833",24.5833333333333,0.833,1
"30069","295","6","V2","ASl","adult",NA,"","ASL","C_D","333",24.5833333333333,0.333,0
"30069","295","7","V2","ASl","adult",NA,"","ASL","C_T","167",24.5833333333333,0.167,1
"30069","295","8","V2","ASl","adult",NA,"","ASL","C_T","733",24.5833333333333,0.733,1
"30069","295","9","V2","ASl","adult",NA,"","ASL","C_T","267",24.5833333333333,0.267,1
"30069","295","11","V2","ASl","adult",NA,"","ASL","no_shift",NA,24.5833333333333,NA,0
"30069","295","12","V2","ASl","adult",NA,"","ASL","C_T","233",24.5833333333333,0.233,1
"30069","295","13","V2","ASl","adult",NA,"","ASL","C_T","267",24.5833333333333,0.267,1
"30069","295","14","V2","ASl","adult",NA,"","ASL","C_T","1733",24.5833333333333,1.733,1
"30069","295","15","V2","ASl","adult",NA,"","ASL","C_T","233",24.5833333333333,0.233,1
"30069","295","16","V2","ASl","adult",NA,"","ASL","C_T","633",24.5833333333333,0.633,1
"30069","295","17","V2","ASl","adult",NA,"","ASL","C_T","567",24.5833333333333,0.567,1
"30069","295","18","V2","ASl","adult",NA,"","ASL","C_T","867",24.5833333333333,0.867,1
"30069","295","20","V2","ASl","adult",NA,"","ASL","C_T","167",24.5833333333333,0.167,1
"30069","295","21","V2","ASl","adult",NA,"","ASL","C_T","100",24.5833333333333,0.1,1
"30069","295","22","V2","ASl","adult",NA,"","ASL","C_T","467",24.5833333333333,0.467,1
"30069","295","23","V2","ASl","adult",NA,"","ASL","C_T","133",24.5833333333333,0.133,1
"30069","295","24","V2","ASl","adult",NA,"","ASL","C_T","267",24.5833333333333,0.267,1
"30069","295","26","V2","ASl","adult",NA,"","ASL","C_T","100",24.5833333333333,0.1,1
"30069","295","27","V2","ASl","adult",NA,"","ASL","C_T","233",24.5833333333333,0.233,1
"30069","295","29","V2","ASl","adult",NA,"","ASL","C_T","33",24.5833333333333,0.033,1
"30069","295","30","V2","ASl","adult",NA,"","ASL","C_T","200",24.5833333333333,0.2,1
"30069","295","31","V2","ASl","adult",NA,"","ASL","C_T","200",24.5833333333333,0.2,1
"30069","295","33","V2","ASl","adult",NA,"","ASL","C_T","433",24.5833333333333,0.433,1
"30069","295","35","V2","ASl","adult",NA,"","ASL","C_T","200",24.5833333333333,0.2,1
"30069","295","36","V2","ASl","adult",NA,"","ASL","C_T","67",24.5833333333333,0.067,1
"30074","324","2","V2","ASl","adult",NA,"","ASL","C_T","1900",27,1.9,1
"30074","324","3","V2","ASl","adult",NA,"","ASL","C_T","1467",27,1.467,1
"30074","324","4","V2","ASl","adult",NA,"","ASL","C_T","1067",27,1.067,1
"30074","324","5","V2","ASl","adult",NA,"","ASL","C_T","433",27,0.433,1
"30074","324","6","V2","ASl","adult",NA,"","ASL","C_T","667",27,0.667,1
"30074","324","7","V2","ASl","adult",NA,"","ASL","C_D","200",27,0.2,0
"30074","324","8","V2","ASl","adult",NA,"","ASL","C_T","667",27,0.667,1
"30074","324","9","V2","ASl","adult",NA,"","ASL","C_T","700",27,0.7,1
"30074","324","11","V2","ASl","adult",NA,"","ASL","C_T","967",27,0.967,1
"30074","324","12","V2","ASl","adult",NA,"","ASL","C_T","267",27,0.267,1
"30074","324","13","V2","ASl","adult",NA,"","ASL","C_T","333",27,0.333,1
"30074","324","14","V2","ASl","adult",NA,"","ASL","C_T","967",27,0.967,1
"30074","324","15","V2","ASl","adult",NA,"","ASL","C_T","67",27,0.067,1
"30074","324","16","V2","ASl","adult",NA,"","ASL","C_T","800",27,0.8,1
"30074","324","17","V2","ASl","adult",NA,"","ASL","C_T","467",27,0.467,1
"30074","324","18","V2","ASl","adult",NA,"","ASL","C_T","400",27,0.4,1
"30074","324","20","V2","ASl","adult",NA,"","ASL","C_T","33",27,0.033,1
"30074","324","21","V2","ASl","adult",NA,"","ASL","C_T","767",27,0.767,1
"30074","324","22","V2","ASl","adult",NA,"","ASL","C_T","400",27,0.4,1
"30074","324","24","V2","ASl","adult",NA,"","ASL","C_T","367",27,0.367,1
"30074","324","25","V2","ASl","adult",NA,"","ASL","C_T","167",27,0.167,1
"30074","324","26","V2","ASl","adult",NA,"","ASL","C_T","400",27,0.4,1
"30074","324","29","V2","ASl","adult",NA,"","ASL","C_T","233",27,0.233,1
"30074","324","30","V2","ASl","adult",NA,"","ASL","C_T","533",27,0.533,1
"30074","324","31","V2","ASl","adult",NA,"","ASL","C_T","367",27,0.367,1
"30074","324","32","V2","ASl","adult",NA,"","ASL","C_T","500",27,0.5,1
"30074","324","33","V2","ASl","adult",NA,"","ASL","C_T","133",27,0.133,1
"30074","324","34","V2","ASl","adult",NA,"","ASL","C_T","33",27,0.033,1
"30074","324","35","V2","ASl","adult",NA,"","ASL","C_T","100",27,0.1,1
"30075","358","2","V2","ASl","adult",NA,"","ASL","C_T","1500",29.8333333333333,1.5,1
"30075","358","3","V2","ASl","adult",NA,"","ASL","C_T","733",29.8333333333333,0.733,1
"30075","358","4","V2","ASl","adult",NA,"","ASL","C_T","300",29.8333333333333,0.3,1
"30075","358","5","V2","ASl","adult",NA,"","ASL","C_T","500",29.8333333333333,0.5,1
"30075","358","6","V2","ASl","adult",NA,"","ASL","C_T","667",29.8333333333333,0.667,1
"30075","358","7","V2","ASl","adult",NA,"","ASL","C_T","1433",29.8333333333333,1.433,1
"30075","358","8","V2","ASl","adult",NA,"","ASL","C_T","1700",29.8333333333333,1.7,1
"30075","358","9","V2","ASl","adult",NA,"","ASL","C_T","733",29.8333333333333,0.733,1
"30075","358","11","V2","ASl","adult",NA,"","ASL","C_T","1633",29.8333333333333,1.633,1
"30075","358","12","V2","ASl","adult",NA,"","ASL","C_T","433",29.8333333333333,0.433,1
"30075","358","13","V2","ASl","adult",NA,"","ASL","C_T","667",29.8333333333333,0.667,1
"30075","358","14","V2","ASl","adult",NA,"","ASL","C_T","1267",29.8333333333333,1.267,1
"30075","358","15","V2","ASl","adult",NA,"","ASL","C_T","100",29.8333333333333,0.1,1
"30075","358","16","V2","ASl","adult",NA,"","ASL","C_T","567",29.8333333333333,0.567,1
"30075","358","17","V2","ASl","adult",NA,"","ASL","C_T","333",29.8333333333333,0.333,1
"30075","358","18","V2","ASl","adult",NA,"","ASL","C_T","633",29.8333333333333,0.633,1
"30075","358","20","V2","ASl","adult",NA,"","ASL","C_T","200",29.8333333333333,0.2,1
"30075","358","21","V2","ASl","adult",NA,"","ASL","C_T","233",29.8333333333333,0.233,1
"30075","358","22","V2","ASl","adult",NA,"","ASL","C_T","533",29.8333333333333,0.533,1
"30075","358","23","V2","ASl","adult",NA,"","ASL","C_T","633",29.8333333333333,0.633,1
"30075","358","24","V2","ASl","adult",NA,"","ASL","C_T","200",29.8333333333333,0.2,1
"30075","358","27","V2","ASl","adult",NA,"","ASL","C_T","300",29.8333333333333,0.3,1
"30075","358","29","V2","ASl","adult",NA,"","ASL","C_T","67",29.8333333333333,0.067,1
"30075","358","30","V2","ASl","adult",NA,"","ASL","C_T","33",29.8333333333333,0.033,1
"30075","358","31","V2","ASl","adult",NA,"","ASL","C_T","67",29.8333333333333,0.067,1
"30075","358","33","V2","ASl","adult",NA,"","ASL","C_T","167",29.8333333333333,0.167,1
"30075","358","34","V2","ASl","adult",NA,"","ASL","C_T","167",29.8333333333333,0.167,1
"30075","358","35","V2","ASl","adult",NA,"","ASL","C_T","667",29.8333333333333,0.667,1
"30078","324","2","V2","ASl","adult",NA,"","ASL","C_T","733",27,0.733,1
"30078","324","3","V2","ASl","adult",NA,"","ASL","C_T","1100",27,1.1,1
"30078","324","4","V2","ASl","adult",NA,"","ASL","C_T","1100",27,1.1,1
"30078","324","5","V2","ASl","adult",NA,"","ASL","C_T","767",27,0.767,1
"30078","324","6","V2","ASl","adult",NA,"","ASL","C_T","867",27,0.867,1
"30078","324","7","V2","ASl","adult",NA,"","ASL","C_T","667",27,0.667,1
"30078","324","8","V2","ASl","adult",NA,"","ASL","C_T","800",27,0.8,1
"30078","324","9","V2","ASl","adult",NA,"","ASL","C_T","767",27,0.767,1
"30078","324","11","V2","ASl","adult",NA,"","ASL","C_T","667",27,0.667,1
"30078","324","12","V2","ASl","adult",NA,"","ASL","C_T","500",27,0.5,1
"30078","324","13","V2","ASl","adult",NA,"","ASL","C_T","567",27,0.567,1
"30078","324","14","V2","ASl","adult",NA,"","ASL","C_T","667",27,0.667,1
"30078","324","15","V2","ASl","adult",NA,"","ASL","C_T","767",27,0.767,1
"30078","324","16","V2","ASl","adult",NA,"","ASL","C_T","467",27,0.467,1
"30078","324","17","V2","ASl","adult",NA,"","ASL","C_T","567",27,0.567,1
"30078","324","18","V2","ASl","adult",NA,"","ASL","C_T","567",27,0.567,1
"30078","324","20","V2","ASl","adult",NA,"","ASL","C_T","467",27,0.467,1
"30078","324","21","V2","ASl","adult",NA,"","ASL","C_T","367",27,0.367,1
"30078","324","22","V2","ASl","adult",NA,"","ASL","C_T","1067",27,1.067,1
"30078","324","23","V2","ASl","adult",NA,"","ASL","C_T","333",27,0.333,1
"30078","324","24","V2","ASl","adult",NA,"","ASL","C_T","733",27,0.733,1
"30078","324","25","V2","ASl","adult",NA,"","ASL","C_T","2367",27,2.367,1
"30078","324","26","V2","ASl","adult",NA,"","ASL","C_T","500",27,0.5,1
"30078","324","27","V2","ASl","adult",NA,"","ASL","C_T","1600",27,1.6,1
"30078","324","29","V2","ASl","adult",NA,"","ASL","C_T","433",27,0.433,1
"30078","324","30","V2","ASl","adult",NA,"","ASL","C_T","367",27,0.367,1
"30078","324","31","V2","ASl","adult",NA,"","ASL","C_T","433",27,0.433,1
"30078","324","32","V2","ASl","adult",NA,"","ASL","C_T","367",27,0.367,1
"30078","324","33","V2","ASl","adult",NA,"","ASL","C_T","533",27,0.533,1
"30078","324","34","V2","ASl","adult",NA,"","ASL","C_T","167",27,0.167,1
"30078","324","35","V2","ASl","adult",NA,"","ASL","C_T","200",27,0.2,1
"30079","325","2","V2","ASl","adult",NA,"","ASL","C_D","1533",27.0833333333333,1.533,0
"30079","325","3","V2","ASl","adult",NA,"","ASL","C_T","1033",27.0833333333333,1.033,1
"30079","325","4","V2","ASl","adult",NA,"","ASL","no_shift",NA,27.0833333333333,NA,0
"30079","325","5","V2","ASl","adult",NA,"","ASL","C_T","2333",27.0833333333333,2.333,1
"30079","325","6","V2","ASl","adult",NA,"","ASL","C_T","700",27.0833333333333,0.7,1
"30079","325","7","V2","ASl","adult",NA,"","ASL","C_T","1900",27.0833333333333,1.9,1
"30079","325","8","V2","ASl","adult",NA,"","ASL","C_T","2000",27.0833333333333,2,1
"30079","325","9","V2","ASl","adult",NA,"","ASL","C_T","1500",27.0833333333333,1.5,1
"30079","325","11","V2","ASl","adult",NA,"","ASL","C_T","2167",27.0833333333333,2.167,1
"30079","325","12","V2","ASl","adult",NA,"","ASL","C_T","1833",27.0833333333333,1.833,1
"30079","325","13","V2","ASl","adult",NA,"","ASL","C_T","1200",27.0833333333333,1.2,1
"30079","325","14","V2","ASl","adult",NA,"","ASL","C_T","1667",27.0833333333333,1.667,1
"30079","325","15","V2","ASl","adult",NA,"","ASL","C_T","1467",27.0833333333333,1.467,1
"30079","325","16","V2","ASl","adult",NA,"","ASL","no_shift",NA,27.0833333333333,NA,0
"30079","325","17","V2","ASl","adult",NA,"","ASL","C_T","1833",27.0833333333333,1.833,1
"30079","325","18","V2","ASl","adult",NA,"","ASL","C_T","2000",27.0833333333333,2,1
"30079","325","20","V2","ASl","adult",NA,"","ASL","C_T","1000",27.0833333333333,1,1
"30079","325","21","V2","ASl","adult",NA,"","ASL","C_T","2300",27.0833333333333,2.3,1
"30079","325","22","V2","ASl","adult",NA,"","ASL","C_T","1600",27.0833333333333,1.6,1
"30079","325","23","V2","ASl","adult",NA,"","ASL","C_T","367",27.0833333333333,0.367,1
"30079","325","24","V2","ASl","adult",NA,"","ASL","C_T","1233",27.0833333333333,1.233,1
"30079","325","25","V2","ASl","adult",NA,"","ASL","C_T","600",27.0833333333333,0.6,1
"30079","325","26","V2","ASl","adult",NA,"","ASL","C_T","1067",27.0833333333333,1.067,1
"30079","325","27","V2","ASl","adult",NA,"","ASL","C_D","800",27.0833333333333,0.8,0
"30079","325","29","V2","ASl","adult",NA,"","ASL","C_T","833",27.0833333333333,0.833,1
"30079","325","30","V2","ASl","adult",NA,"","ASL","C_T","467",27.0833333333333,0.467,1
"30079","325","31","V2","ASl","adult",NA,"","ASL","C_T","300",27.0833333333333,0.3,1
"30079","325","32","V2","ASl","adult",NA,"","ASL","C_T","433",27.0833333333333,0.433,1
"30079","325","33","V2","ASl","adult",NA,"","ASL","C_T","600",27.0833333333333,0.6,1
"30079","325","34","V2","ASl","adult",NA,"","ASL","C_T","433",27.0833333333333,0.433,1
"30079","325","35","V2","ASl","adult",NA,"","ASL","C_T","1133",27.0833333333333,1.133,1
"30079","325","36","V2","ASl","adult",NA,"","ASL","C_T","733",27.0833333333333,0.733,1
"30081","530","2","V2","ASl","adult",NA,"","ASL","C_T","2067",44.1666666666667,2.067,1
"30081","530","3","V2","ASl","adult",NA,"","ASL","C_T","967",44.1666666666667,0.967,1
"30081","530","4","V2","ASl","adult",NA,"","ASL","C_T","567",44.1666666666667,0.567,1
"30081","530","5","V2","ASl","adult",NA,"","ASL","C_T","1000",44.1666666666667,1,1
"30081","530","6","V2","ASl","adult",NA,"","ASL","C_T","533",44.1666666666667,0.533,1
"30081","530","7","V2","ASl","adult",NA,"","ASL","C_T","500",44.1666666666667,0.5,1
"30081","530","8","V2","ASl","adult",NA,"","ASL","C_T","1100",44.1666666666667,1.1,1
"30081","530","9","V2","ASl","adult",NA,"","ASL","C_T","600",44.1666666666667,0.6,1
"30081","530","11","V2","ASl","adult",NA,"","ASL","C_T","867",44.1666666666667,0.867,1
"30081","530","12","V2","ASl","adult",NA,"","ASL","C_T","367",44.1666666666667,0.367,1
"30081","530","13","V2","ASl","adult",NA,"","ASL","C_T","700",44.1666666666667,0.7,1
"30081","530","14","V2","ASl","adult",NA,"","ASL","C_T","833",44.1666666666667,0.833,1
"30081","530","15","V2","ASl","adult",NA,"","ASL","C_T","400",44.1666666666667,0.4,1
"30081","530","16","V2","ASl","adult",NA,"","ASL","C_T","300",44.1666666666667,0.3,1
"30081","530","17","V2","ASl","adult",NA,"","ASL","C_T","367",44.1666666666667,0.367,1
"30081","530","18","V2","ASl","adult",NA,"","ASL","C_T","1100",44.1666666666667,1.1,1
"30081","530","20","V2","ASl","adult",NA,"","ASL","C_T","200",44.1666666666667,0.2,1
"30081","530","21","V2","ASl","adult",NA,"","ASL","C_T","233",44.1666666666667,0.233,1
"30081","530","22","V2","ASl","adult",NA,"","ASL","C_T","333",44.1666666666667,0.333,1
"30081","530","23","V2","ASl","adult",NA,"","ASL","C_T","967",44.1666666666667,0.967,1
"30081","530","24","V2","ASl","adult",NA,"","ASL","C_T","1433",44.1666666666667,1.433,1
"30081","530","25","V2","ASl","adult",NA,"","ASL","C_T","633",44.1666666666667,0.633,1
"30081","530","26","V2","ASl","adult",NA,"","ASL","C_T","433",44.1666666666667,0.433,1
"30081","530","27","V2","ASl","adult",NA,"","ASL","C_T","1033",44.1666666666667,1.033,1
"30081","530","29","V2","ASl","adult",NA,"","ASL","C_T","333",44.1666666666667,0.333,1
"30081","530","30","V2","ASl","adult",NA,"","ASL","C_T","333",44.1666666666667,0.333,1
"30081","530","31","V2","ASl","adult",NA,"","ASL","C_T","167",44.1666666666667,0.167,1
"30081","530","32","V2","ASl","adult",NA,"","ASL","C_T","333",44.1666666666667,0.333,1
"30081","530","33","V2","ASl","adult",NA,"","ASL","C_T","233",44.1666666666667,0.233,1
"30081","530","34","V2","ASl","adult",NA,"","ASL","C_T","233",44.1666666666667,0.233,1
"30081","530","35","V2","ASl","adult",NA,"","ASL","C_T","1067",44.1666666666667,1.067,1
"30081","530","36","V2","ASl","adult",NA,"","ASL","C_T","467",44.1666666666667,0.467,1
"30085","19","2","V2","ASl","child","deaf","","ASL","C_T","2967",1.58333333333333,2.967,1
"30085","19","3","V2","ASl","child","deaf","","ASL","C_D","2400",1.58333333333333,2.4,0
"30085","19","5","V2","ASl","child","deaf","","ASL","C_D","933",1.58333333333333,0.933,0
"30085","19","6","V2","ASl","child","deaf","","ASL","C_T","1533",1.58333333333333,1.533,1
"30085","19","9","V2","ASl","child","deaf","","ASL","C_T","1367",1.58333333333333,1.367,1
"30085","19","13","V2","ASl","child","deaf","","ASL","C_T","1000",1.58333333333333,1,1
"30085","19","14","V2","ASl","child","deaf","","ASL","no_shift",NA,1.58333333333333,NA,0
"30085","19","15","V2","ASl","child","deaf","","ASL","C_D","500",1.58333333333333,0.5,0
"30085","19","16","V2","ASl","child","deaf","","ASL","C_T","1233",1.58333333333333,1.233,1
"30085","19","17","V2","ASl","child","deaf","","ASL","C_T","1700",1.58333333333333,1.7,1
"30085","19","18","V2","ASl","child","deaf","","ASL","C_T","933",1.58333333333333,0.933,1
"30086","20","5","V2","ASl","child","hearing","","ASL","C_D","2200",1.66666666666667,2.2,0
"30086","20","6","V2","ASl","child","hearing","","ASL","C_D","1367",1.66666666666667,1.367,0
"30086","20","7","V2","ASl","child","hearing","","ASL","C_T","1267",1.66666666666667,1.267,1
"30086","20","8","V2","ASl","child","hearing","","ASL","no_shift",NA,1.66666666666667,NA,0
"30086","20","9","V2","ASl","child","hearing","","ASL","no_shift",NA,1.66666666666667,NA,0
"30086","20","11","V2","ASl","child","hearing","","ASL","C_D","1400",1.66666666666667,1.4,0
"30086","20","14","V2","ASl","child","hearing","","ASL","C_T","1467",1.66666666666667,1.467,1
"30086","20","15","V2","ASl","child","hearing","","ASL","C_D","767",1.66666666666667,0.767,0
"30086","20","16","V2","ASl","child","hearing","","ASL","no_shift",NA,1.66666666666667,NA,0
"30086","20","20","V2","ASl","child","hearing","","ASL","C_D","800",1.66666666666667,0.8,0
"30088","22","2","V2","ASl","child","hearing","","ASL","C_D","1633",1.83333333333333,1.633,0
"30088","22","4","V2","ASl","child","hearing","","ASL","no_shift",NA,1.83333333333333,NA,0
"30088","22","6","V2","ASl","child","hearing","","ASL","C_T","1367",1.83333333333333,1.367,1
"30088","22","9","V2","ASl","child","hearing","","ASL","C_D","267",1.83333333333333,0.267,0
"30088","22","12","V2","ASl","child","hearing","","ASL","C_D","1533",1.83333333333333,1.533,0
"30088","22","14","V2","ASl","child","hearing","","ASL","no_shift",NA,1.83333333333333,NA,0
"30088","22","15","V2","ASl","child","hearing","","ASL","C_T","1300",1.83333333333333,1.3,1
"30088","22","16","V2","ASl","child","hearing","","ASL","C_D","1900",1.83333333333333,1.9,0
"5112","26","2","Face","Trio_Face","child","hearing","","English","no_shift",NA,2.16666666666667,NA,0
"5112","26","3","Face","Trio_Face","child","hearing","","English","no_shift",NA,2.16666666666667,NA,0
"5112","26","4","Face","Trio_Face","child","hearing","","English","C_T","1033",2.16666666666667,1.033,1
"5112","26","5","Face","Trio_Face","child","hearing","","English","C_D","1800",2.16666666666667,1.8,0
"5112","26","6","Face","Trio_Face","child","hearing","","English","C_T","2367",2.16666666666667,2.367,1
"5112","26","7","Face","Trio_Face","child","hearing","","English","C_T","367",2.16666666666667,0.367,1
"5112","26","13","Face","Trio_Face","child","hearing","","English","C_T","1867",2.16666666666667,1.867,1
"5112","26","17","Face","Trio_Face","child","hearing","","English","C_T","900",2.16666666666667,0.9,1
"5112","26","20","Face","Trio_Face","child","hearing","","English","C_C","500",2.16666666666667,0.5,0
"5112","26","23","Face","Trio_Face","child","hearing","","English","C_T","933",2.16666666666667,0.933,1
"5112","26","28","Face","Trio_Face","child","hearing","","English","C_T","1467",2.16666666666667,1.467,1
"5112","26","29","Face","Trio_Face","child","hearing","","English","no_shift","67",2.16666666666667,0.067,0
"5112","26","30","Face","Trio_Face","child","hearing","","English","C_D","400",2.16666666666667,0.4,0
"5112","26","31","Face","Trio_Face","child","hearing","","English","C_T","400",2.16666666666667,0.4,1
"5112","26","32","Face","Trio_Face","child","hearing","","English","C_T","600",2.16666666666667,0.6,1
"5112","26","33","Face","Trio_Face","child","hearing","","English","C_D","867",2.16666666666667,0.867,0
"5112","26","34","Face","Trio_Face","child","hearing","","English","C_D","100",2.16666666666667,0.1,0
"5007","26","2","Face","Trio_Face","child","hearing","","English","no_shift",NA,2.16666666666667,NA,0
"5007","26","3","Face","Trio_Face","child","hearing","","English","no_shift",NA,2.16666666666667,NA,0
"5007","26","4","Face","Trio_Face","child","hearing","","English","C_T","1033",2.16666666666667,1.033,1
"5007","26","5","Face","Trio_Face","child","hearing","","English","C_T","667",2.16666666666667,0.667,1
"5007","26","6","Face","Trio_Face","child","hearing","","English","C_D","1533",2.16666666666667,1.533,0
"5007","26","7","Face","Trio_Face","child","hearing","","English","no_shift",NA,2.16666666666667,NA,0
"5007","26","8","Face","Trio_Face","child","hearing","","English","C_T","1467",2.16666666666667,1.467,1
"5007","26","9","Face","Trio_Face","child","hearing","","English","C_D","2700",2.16666666666667,2.7,0
"5007","26","11","Face","Trio_Face","child","hearing","","English","C_D","1667",2.16666666666667,1.667,0
"5007","26","12","Face","Trio_Face","child","hearing","","English","no_shift",NA,2.16666666666667,NA,0
"5007","26","15","Face","Trio_Face","child","hearing","","English","C_C","400",2.16666666666667,0.4,0
"5007","26","18","Face","Trio_Face","child","hearing","","English","C_D","1167",2.16666666666667,1.167,0
"5007","26","20","Face","Trio_Face","child","hearing","","English","C_D","733",2.16666666666667,0.733,0
"5007","26","21","Face","Trio_Face","child","hearing","","English","C_T","1267",2.16666666666667,1.267,1
"5007","26","22","Face","Trio_Face","child","hearing","","English","C_C","1700",2.16666666666667,1.7,0
"5007","26","23","Face","Trio_Face","child","hearing","","English","C_D","2233",2.16666666666667,2.233,0
"5007","26","24","Face","Trio_Face","child","hearing","","English","C_D","2600",2.16666666666667,2.6,0
"5007","26","25","Face","Trio_Face","child","hearing","","English","C_T","1233",2.16666666666667,1.233,1
"5007","26","26","Face","Trio_Face","child","hearing","","English","no_shift",NA,2.16666666666667,NA,0
"5007","26","28","Face","Trio_Face","child","hearing","","English","C_D","2900",2.16666666666667,2.9,0
"5007","26","29","Face","Trio_Face","child","hearing","","English","C_T","1933",2.16666666666667,1.933,1
"5007","26","30","Face","Trio_Face","child","hearing","","English","C_C","67",2.16666666666667,0.067,0
"5007","26","31","Face","Trio_Face","child","hearing","","English","C_T","800",2.16666666666667,0.8,1
"5007","26","33","Face","Trio_Face","child","hearing","","English","no_shift",NA,2.16666666666667,NA,0
"4976","26","2","Face","Trio_Face","child","hearing","","English","C_T","900",2.16666666666667,0.9,1
"4976","26","3","Face","Trio_Face","child","hearing","","English","C_T","100",2.16666666666667,0.1,1
"4976","26","4","Face","Trio_Face","child","hearing","","English","C_D","1267",2.16666666666667,1.267,0
"4976","26","5","Face","Trio_Face","child","hearing","","English","C_T","967",2.16666666666667,0.967,1
"4976","26","6","Face","Trio_Face","child","hearing","","English","C_D","2367",2.16666666666667,2.367,0
"4976","26","7","Face","Trio_Face","child","hearing","","English","C_D","1300",2.16666666666667,1.3,0
"4976","26","8","Face","Trio_Face","child","hearing","","English","C_T","133",2.16666666666667,0.133,1
"4976","26","9","Face","Trio_Face","child","hearing","","English","C_D","267",2.16666666666667,0.267,0
"4976","26","12","Face","Trio_Face","child","hearing","","English","C_T","167",2.16666666666667,0.167,1
"4976","26","13","Face","Trio_Face","child","hearing","","English","C_D","33",2.16666666666667,0.033,0
"4976","26","14","Face","Trio_Face","child","hearing","","English","C_T","1367",2.16666666666667,1.367,1
"4976","26","15","Face","Trio_Face","child","hearing","","English","C_T","1000",2.16666666666667,1,1
"4976","26","16","Face","Trio_Face","child","hearing","","English","C_D","200",2.16666666666667,0.2,0
"4976","26","17","Face","Trio_Face","child","hearing","","English","C_T","833",2.16666666666667,0.833,1
"4976","26","18","Face","Trio_Face","child","hearing","","English","C_T","100",2.16666666666667,0.1,1
"4976","26","23","Face","Trio_Face","child","hearing","","English","C_D","1500",2.16666666666667,1.5,0
"4976","26","26","Face","Trio_Face","child","hearing","","English","C_D","400",2.16666666666667,0.4,0
"4976","26","30","Face","Trio_Face","child","hearing","","English","C_T","833",2.16666666666667,0.833,1
"4976","26","32","Face","Trio_Face","child","hearing","","English","C_D","867",2.16666666666667,0.867,0
"4976","26","34","Face","Trio_Face","child","hearing","","English","C_D","400",2.16666666666667,0.4,0
"4949","26","2","Face","Trio_Face","child","hearing","","English","C_T","1300",2.16666666666667,1.3,1
"4949","26","3","Face","Trio_Face","child","hearing","","English","C_T","400",2.16666666666667,0.4,1
"4949","26","5","Face","Trio_Face","child","hearing","","English","C_T","67",2.16666666666667,0.067,1
"4949","26","8","Face","Trio_Face","child","hearing","","English","C_D","400",2.16666666666667,0.4,0
"4949","26","11","Face","Trio_Face","child","hearing","","English","C_T","900",2.16666666666667,0.9,1
"4949","26","12","Face","Trio_Face","child","hearing","","English","C_T","1633",2.16666666666667,1.633,1
"4949","26","15","Face","Trio_Face","child","hearing","","English","C_T","833",2.16666666666667,0.833,1
"4949","26","16","Face","Trio_Face","child","hearing","","English","C_T","833",2.16666666666667,0.833,1
"4949","26","17","Face","Trio_Face","child","hearing","","English","C_D","1900",2.16666666666667,1.9,0
"4949","26","20","Face","Trio_Face","child","hearing","","English","C_T","1167",2.16666666666667,1.167,1
"4949","26","22","Face","Trio_Face","child","hearing","","English","C_T","67",2.16666666666667,0.067,1
"4949","26","23","Face","Trio_Face","child","hearing","","English","C_D","700",2.16666666666667,0.7,0
"4949","26","28","Face","Trio_Face","child","hearing","","English","C_T","900",2.16666666666667,0.9,1
"4949","26","30","Face","Trio_Face","child","hearing","","English","C_T","900",2.16666666666667,0.9,1
"4949","26","31","Face","Trio_Face","child","hearing","","English","C_T","967",2.16666666666667,0.967,1
"4949","26","33","Face","Trio_Face","child","hearing","","English","C_T","867",2.16666666666667,0.867,1
"4949","26","34","Face","Trio_Face","child","hearing","","English","C_D","67",2.16666666666667,0.067,0
"4928","26","2","Face","Trio_Face","child","hearing","","English","C_D","300",2.16666666666667,0.3,0
"4928","26","3","Face","Trio_Face","child","hearing","","English","C_T","1033",2.16666666666667,1.033,1
"4928","26","9","Face","Trio_Face","child","hearing","","English","C_T","333",2.16666666666667,0.333,1
"4928","26","12","Face","Trio_Face","child","hearing","","English","C_T","1033",2.16666666666667,1.033,1
"4928","26","13","Face","Trio_Face","child","hearing","","English","C_D","2367",2.16666666666667,2.367,0
"4928","26","15","Face","Trio_Face","child","hearing","","English","C_T","933",2.16666666666667,0.933,1
"4928","26","16","Face","Trio_Face","child","hearing","","English","C_T","867",2.16666666666667,0.867,1
"4928","26","17","Face","Trio_Face","child","hearing","","English","C_T","700",2.16666666666667,0.7,1
"4928","26","19","Face","Trio_Face","child","hearing","","English","C_T","1000",2.16666666666667,1,1
"4928","26","20","Face","Trio_Face","child","hearing","","English","C_T","1167",2.16666666666667,1.167,1
"4928","26","21","Face","Trio_Face","child","hearing","","English","C_T","733",2.16666666666667,0.733,1
"4928","26","22","Face","Trio_Face","child","hearing","","English","C_D","2200",2.16666666666667,2.2,0
"4928","26","23","Face","Trio_Face","child","hearing","","English","C_T","700",2.16666666666667,0.7,1
"4928","26","24","Face","Trio_Face","child","hearing","","English","C_D","1100",2.16666666666667,1.1,0
"4928","26","27","Face","Trio_Face","child","hearing","","English","no_shift","167",2.16666666666667,0.167,0
"4928","26","30","Face","Trio_Face","child","hearing","","English","C_C","167",2.16666666666667,0.167,0
"4928","26","32","Face","Trio_Face","child","hearing","","English","C_T","900",2.16666666666667,0.9,1
"4915","26","2","Face","Trio_Face","child","hearing","","English","C_D","1067",2.16666666666667,1.067,0
"4915","26","3","Face","Trio_Face","child","hearing","","English","C_T","867",2.16666666666667,0.867,1
"4915","26","7","Face","Trio_Face","child","hearing","","English","C_T","633",2.16666666666667,0.633,1
"4915","26","8","Face","Trio_Face","child","hearing","","English","C_D","1667",2.16666666666667,1.667,0
"4915","26","9","Face","Trio_Face","child","hearing","","English","C_D","700",2.16666666666667,0.7,0
"4915","26","10","Face","Trio_Face","child","hearing","","English","C_T","700",2.16666666666667,0.7,1
"4915","26","11","Face","Trio_Face","child","hearing","","English","C_D","833",2.16666666666667,0.833,0
"4915","26","13","Face","Trio_Face","child","hearing","","English","C_D","400",2.16666666666667,0.4,0
"4915","26","14","Face","Trio_Face","child","hearing","","English","C_T","467",2.16666666666667,0.467,1
"4915","26","15","Face","Trio_Face","child","hearing","","English","C_D","300",2.16666666666667,0.3,0
"4915","26","17","Face","Trio_Face","child","hearing","","English","no_shift","2533",2.16666666666667,2.533,0
"4915","26","19","Face","Trio_Face","child","hearing","","English","C_D","667",2.16666666666667,0.667,0
"4915","26","20","Face","Trio_Face","child","hearing","","English","no_shift",NA,2.16666666666667,NA,0
"4915","26","23","Face","Trio_Face","child","hearing","","English","C_D","900",2.16666666666667,0.9,0
"4915","26","24","Face","Trio_Face","child","hearing","","English","C_D","867",2.16666666666667,0.867,0
"4915","26","26","Face","Trio_Face","child","hearing","","English","C_T","967",2.16666666666667,0.967,1
"4915","26","27","Face","Trio_Face","child","hearing","","English","C_D","2133",2.16666666666667,2.133,0
"4915","26","30","Face","Trio_Face","child","hearing","","English","no_shift",NA,2.16666666666667,NA,0
"4915","26","31","Face","Trio_Face","child","hearing","","English","C_T","700",2.16666666666667,0.7,1
"4915","26","32","Face","Trio_Face","child","hearing","","English","C_T","100",2.16666666666667,0.1,1
"4901","26","2","Face","Trio_Face","child","hearing","","English","C_T","400",2.16666666666667,0.4,1
"4901","26","4","Face","Trio_Face","child","hearing","","English","C_D","1200",2.16666666666667,1.2,0
"4901","26","6","Face","Trio_Face","child","hearing","","English","C_T","733",2.16666666666667,0.733,1
"4901","26","7","Face","Trio_Face","child","hearing","","English","C_T","367",2.16666666666667,0.367,1
"4901","26","9","Face","Trio_Face","child","hearing","","English","C_T","100",2.16666666666667,0.1,1
"4901","26","11","Face","Trio_Face","child","hearing","","English","C_D","267",2.16666666666667,0.267,0
"4901","26","12","Face","Trio_Face","child","hearing","","English","C_D","467",2.16666666666667,0.467,0
"4901","26","13","Face","Trio_Face","child","hearing","","English","C_T","667",2.16666666666667,0.667,1
"4901","26","14","Face","Trio_Face","child","hearing","","English","C_D","567",2.16666666666667,0.567,0
"4901","26","15","Face","Trio_Face","child","hearing","","English","C_T","933",2.16666666666667,0.933,1
"4901","26","16","Face","Trio_Face","child","hearing","","English","no_shift",NA,2.16666666666667,NA,0
"4901","26","20","Face","Trio_Face","child","hearing","","English","C_D","1067",2.16666666666667,1.067,0
"4901","26","21","Face","Trio_Face","child","hearing","","English","C_T","1300",2.16666666666667,1.3,1
"4901","26","22","Face","Trio_Face","child","hearing","","English","C_D","100",2.16666666666667,0.1,0
"4901","26","23","Face","Trio_Face","child","hearing","","English","no_shift",NA,2.16666666666667,NA,0
"4899","25","2","Face","Trio_Face","child","hearing","","English","C_T","367",2.08333333333333,0.367,1
"4899","25","3","Face","Trio_Face","child","hearing","","English","C_D","300",2.08333333333333,0.3,0
"4899","25","4","Face","Trio_Face","child","hearing","","English","C_T","1000",2.08333333333333,1,1
"4899","25","6","Face","Trio_Face","child","hearing","","English","C_T","433",2.08333333333333,0.433,1
"4899","25","8","Face","Trio_Face","child","hearing","","English","C_D","67",2.08333333333333,0.067,0
"4899","25","9","Face","Trio_Face","child","hearing","","English","C_D","1000",2.08333333333333,1,0
"4899","25","11","Face","Trio_Face","child","hearing","","English","C_T","1167",2.08333333333333,1.167,1
"4899","25","12","Face","Trio_Face","child","hearing","","English","C_D","700",2.08333333333333,0.7,0
"4899","25","13","Face","Trio_Face","child","hearing","","English","C_D","1333",2.08333333333333,1.333,0
"4899","25","14","Face","Trio_Face","child","hearing","","English","C_D","600",2.08333333333333,0.6,0
"4899","25","15","Face","Trio_Face","child","hearing","","English","C_D","1367",2.08333333333333,1.367,0
"4899","25","16","Face","Trio_Face","child","hearing","","English","C_T","933",2.08333333333333,0.933,1
"4899","25","17","Face","Trio_Face","child","hearing","","English","C_T","1067",2.08333333333333,1.067,1
"4899","25","19","Face","Trio_Face","child","hearing","","English","C_T","800",2.08333333333333,0.8,1
"4899","25","20","Face","Trio_Face","child","hearing","","English","C_T","1000",2.08333333333333,1,1
"4899","25","21","Face","Trio_Face","child","hearing","","English","C_D","867",2.08333333333333,0.867,0
"4899","25","22","Face","Trio_Face","child","hearing","","English","C_T","967",2.08333333333333,0.967,1
"4899","25","25","Face","Trio_Face","child","hearing","","English","C_T","1233",2.08333333333333,1.233,1
"4899","25","26","Face","Trio_Face","child","hearing","","English","C_D","933",2.08333333333333,0.933,0
"4899","25","28","Face","Trio_Face","child","hearing","","English","C_T","867",2.08333333333333,0.867,1
