"Sub.Num","Months","Tr.Num","stimuli","experiment","age_code","hearing_status_participant","Prescreen.Notes","language_modality","trial_type","RT","clean_target_img","age_years","RT_sec","correct"
"30004","349","2","V1","ASL","adult","deaf",NA,"ASL","C_T","1633","doll",29.0833333333333,1.633,1
"30004","349","3","V1","ASL","adult","deaf",NA,"ASL","C_T","1167","sock",29.0833333333333,1.167,1
"30004","349","4","V1","ASL","adult","deaf",NA,"ASL","C_T","700","juice",29.0833333333333,0.7,1
"30004","349","5","V1","ASL","adult","deaf",NA,"ASL","C_T","833","cookie",29.0833333333333,0.833,1
"30004","349","6","V1","ASL","adult","deaf",NA,"ASL","C_T","967","cup",29.0833333333333,0.967,1
"30004","349","7","V1","ASL","adult","deaf",NA,"ASL","C_T","700","cookie",29.0833333333333,0.7,1
"30004","349","8","V1","ASL","adult","deaf",NA,"ASL","C_T","233","ball",29.0833333333333,0.233,1
"30004","349","9","V1","ASL","adult","deaf",NA,"ASL","C_T","933","birdy",29.0833333333333,0.933,1
"30004","349","10","V1","ASL","adult","deaf",NA,"ASL","C_T","1800","sock",29.0833333333333,1.8,1
"30004","349","11","V1","ASL","adult","deaf",NA,"ASL","C_T","967","juice",29.0833333333333,0.967,1
"30004","349","12","V1","ASL","adult","deaf",NA,"ASL","C_T","1033","ball",29.0833333333333,1.033,1
"30004","349","13","V1","ASL","adult","deaf",NA,"ASL","C_T","933","cookie",29.0833333333333,0.933,1
"30004","349","14","V1","ASL","adult","deaf",NA,"ASL","C_T","933","juice",29.0833333333333,0.933,1
"30004","349","15","V1","ASL","adult","deaf",NA,"ASL","C_T","1933","cup",29.0833333333333,1.933,1
"30004","349","16","V1","ASL","adult","deaf",NA,"ASL","C_T","2367","juice",29.0833333333333,2.367,1
"30004","349","17","V1","ASL","adult","deaf",NA,"ASL","no_shift",NA,"cookie",29.0833333333333,NA,0
"30004","349","18","V1","ASL","adult","deaf",NA,"ASL","no_shift",NA,"shoe",29.0833333333333,NA,0
"30004","349","19","V1","ASL","adult","deaf",NA,"ASL","C_T","567","kitty",29.0833333333333,0.567,1
"30004","349","21","V1","ASL","adult","deaf",NA,"ASL","C_T","1133","shoe",29.0833333333333,1.133,1
"30004","349","22","V1","ASL","adult","deaf",NA,"ASL","C_T","1833","sock",29.0833333333333,1.833,1
"30004","349","23","V1","ASL","adult","deaf",NA,"ASL","C_T","767","teddy",29.0833333333333,0.767,1
"30004","349","24","V1","ASL","adult","deaf",NA,"ASL","C_T","1200","juice",29.0833333333333,1.2,1
"30004","349","25","V1","ASL","adult","deaf",NA,"ASL","C_T","1000","birdy",29.0833333333333,1,1
"30004","349","26","V1","ASL","adult","deaf",NA,"ASL","C_T","1233","cup",29.0833333333333,1.233,1
"30004","349","27","V1","ASL","adult","deaf",NA,"ASL","C_T","800","cookie",29.0833333333333,0.8,1
"30004","349","28","V1","ASL","adult","deaf",NA,"ASL","C_T","1000","doll",29.0833333333333,1,1
"30004","349","29","V1","ASL","adult","deaf",NA,"ASL","C_T","1867","cup",29.0833333333333,1.867,1
"30004","349","30","V1","ASL","adult","deaf",NA,"ASL","C_T","1267","juice",29.0833333333333,1.267,1
"30004","349","31","V1","ASL","adult","deaf",NA,"ASL","C_T","1000","ball",29.0833333333333,1,1
"30004","349","32","V1","ASL","adult","deaf",NA,"ASL","C_T","1067","cookie",29.0833333333333,1.067,1
"30004","349","34","V1","ASL","adult","deaf",NA,"ASL","C_T","1133","cookie",29.0833333333333,1.133,1
"30004","349","35","V1","ASL","adult","deaf",NA,"ASL","C_T","1067","ball",29.0833333333333,1.067,1
"30004","349","36","V1","ASL","adult","deaf",NA,"ASL","C_T","733","shoe",29.0833333333333,0.733,1
"30004","349","37","V1","ASL","adult","deaf",NA,"ASL","no_shift",NA,"teddy",29.0833333333333,NA,0
"30004","349","38","V1","ASL","adult","deaf",NA,"ASL","C_D","800","sock",29.0833333333333,0.8,0
"30004","349","39","V1","ASL","adult","deaf",NA,"ASL","C_T","1433","kitty",29.0833333333333,1.433,1
"30004","349","40","V1","ASL","adult","deaf",NA,"ASL","C_T","867","juice",29.0833333333333,0.867,1
"30004","349","41","V1","ASL","adult","deaf",NA,"ASL","C_T","767","cookie",29.0833333333333,0.767,1
"30004","349","42","V1","ASL","adult","deaf",NA,"ASL","C_T","700","shoe",29.0833333333333,0.7,1
"30004","349","43","V1","ASL","adult","deaf",NA,"ASL","C_T","600","juice",29.0833333333333,0.6,1
"30005","575","2","V1","ASL","adult","deaf",NA,"ASL","C_D","767","doll",47.9166666666667,0.767,0
"30005","575","3","V1","ASL","adult","deaf",NA,"ASL","C_T","633","sock",47.9166666666667,0.633,1
"30005","575","4","V1","ASL","adult","deaf",NA,"ASL","C_D","767","juice",47.9166666666667,0.767,0
"30005","575","5","V1","ASL","adult","deaf",NA,"ASL","C_T","633","cookie",47.9166666666667,0.633,1
"30005","575","6","V1","ASL","adult","deaf",NA,"ASL","C_T","633","cup",47.9166666666667,0.633,1
"30005","575","7","V1","ASL","adult","deaf",NA,"ASL","C_T","533","cookie",47.9166666666667,0.533,1
"30005","575","8","V1","ASL","adult","deaf",NA,"ASL","C_T","633","ball",47.9166666666667,0.633,1
"30005","575","9","V1","ASL","adult","deaf",NA,"ASL","C_T","700","birdy",47.9166666666667,0.7,1
"30005","575","10","V1","ASL","adult","deaf",NA,"ASL","C_T","400","sock",47.9166666666667,0.4,1
"30005","575","11","V1","ASL","adult","deaf",NA,"ASL","C_T","733","juice",47.9166666666667,0.733,1
"30005","575","12","V1","ASL","adult","deaf",NA,"ASL","C_T","700","ball",47.9166666666667,0.7,1
"30005","575","13","V1","ASL","adult","deaf",NA,"ASL","C_T","567","cookie",47.9166666666667,0.567,1
"30005","575","14","V1","ASL","adult","deaf",NA,"ASL","C_T","600","juice",47.9166666666667,0.6,1
"30005","575","15","V1","ASL","adult","deaf",NA,"ASL","C_T","800","cup",47.9166666666667,0.8,1
"30005","575","16","V1","ASL","adult","deaf",NA,"ASL","C_T","600","shoe",47.9166666666667,0.6,1
"30005","575","17","V1","ASL","adult","deaf",NA,"ASL","C_T","667","kitty",47.9166666666667,0.667,1
"30005","575","19","V1","ASL","adult","deaf",NA,"ASL","C_T","633","shoe",47.9166666666667,0.633,1
"30005","575","20","V1","ASL","adult","deaf",NA,"ASL","C_T","667","sock",47.9166666666667,0.667,1
"30005","575","21","V1","ASL","adult","deaf",NA,"ASL","C_T","1100","teddy",47.9166666666667,1.1,1
"30005","575","22","V1","ASL","adult","deaf",NA,"ASL","C_T","800","juice",47.9166666666667,0.8,1
"30005","575","23","V1","ASL","adult","deaf",NA,"ASL","C_T","700","birdy",47.9166666666667,0.7,1
"30005","575","24","V1","ASL","adult","deaf",NA,"ASL","C_T","967","cup",47.9166666666667,0.967,1
"30005","575","25","V1","ASL","adult","deaf",NA,"ASL","C_T","2233","cookie",47.9166666666667,2.233,1
"30005","575","26","V1","ASL","adult","deaf",NA,"ASL","C_T","1100","doll",47.9166666666667,1.1,1
"30005","575","27","V1","ASL","adult","deaf",NA,"ASL","C_T","433","cup",47.9166666666667,0.433,1
"30005","575","28","V1","ASL","adult","deaf",NA,"ASL","C_T","333","juice",47.9166666666667,0.333,1
"30005","575","29","V1","ASL","adult","deaf",NA,"ASL","C_T","600","ball",47.9166666666667,0.6,1
"30005","575","30","V1","ASL","adult","deaf",NA,"ASL","C_T","400","cookie",47.9166666666667,0.4,1
"30005","575","32","V1","ASL","adult","deaf",NA,"ASL","C_T","667","cookie",47.9166666666667,0.667,1
"30005","575","33","V1","ASL","adult","deaf",NA,"ASL","C_T","700","ball",47.9166666666667,0.7,1
"30005","575","34","V1","ASL","adult","deaf",NA,"ASL","C_T","867","shoe",47.9166666666667,0.867,1
"30005","575","35","V1","ASL","adult","deaf",NA,"ASL","C_T","1133","teddy",47.9166666666667,1.133,1
"30005","575","36","V1","ASL","adult","deaf",NA,"ASL","C_T","367","sock",47.9166666666667,0.367,1
"30005","575","37","V1","ASL","adult","deaf",NA,"ASL","C_D","533","kitty",47.9166666666667,0.533,0
"30005","575","38","V1","ASL","adult","deaf",NA,"ASL","C_T","367","shoe",47.9166666666667,0.367,1
"30005","575","39","V1","ASL","adult","deaf",NA,"ASL","C_T","700","juice",47.9166666666667,0.7,1
"30006","575","2","V1","ASL","adult","deaf",NA,"ASL","C_T","767","doll",47.9166666666667,0.767,1
"30006","575","3","V1","ASL","adult","deaf",NA,"ASL","C_T","867","sock",47.9166666666667,0.867,1
"30006","575","4","V1","ASL","adult","deaf",NA,"ASL","C_T","933","juice",47.9166666666667,0.933,1
"30006","575","5","V1","ASL","adult","deaf",NA,"ASL","C_T","2700","cookie",47.9166666666667,2.7,1
"30006","575","6","V1","ASL","adult","deaf",NA,"ASL","C_T","1400","cup",47.9166666666667,1.4,1
"30006","575","7","V1","ASL","adult","deaf",NA,"ASL","C_T","1133","cookie",47.9166666666667,1.133,1
"30006","575","8","V1","ASL","adult","deaf",NA,"ASL","C_T","433","ball",47.9166666666667,0.433,1
"30006","575","9","V1","ASL","adult","deaf",NA,"ASL","no_shift","2900","birdy",47.9166666666667,2.9,0
"30006","575","10","V1","ASL","adult","deaf",NA,"ASL","C_T","967","sock",47.9166666666667,0.967,1
"30006","575","11","V1","ASL","adult","deaf",NA,"ASL","C_T","1300","juice",47.9166666666667,1.3,1
"30006","575","12","V1","ASL","adult","deaf",NA,"ASL","C_T","2200","ball",47.9166666666667,2.2,1
"30006","575","13","V1","ASL","adult","deaf",NA,"ASL","C_T","767","cookie",47.9166666666667,0.767,1
"30006","575","14","V1","ASL","adult","deaf",NA,"ASL","C_T","900","juice",47.9166666666667,0.9,1
"30006","575","15","V1","ASL","adult","deaf",NA,"ASL","C_T","400","cup",47.9166666666667,0.4,1
"30006","575","16","V1","ASL","adult","deaf",NA,"ASL","C_T","800","shoe",47.9166666666667,0.8,1
"30006","575","17","V1","ASL","adult","deaf",NA,"ASL","C_T","2633","kitty",47.9166666666667,2.633,1
"30006","575","19","V1","ASL","adult","deaf",NA,"ASL","C_T","1000","shoe",47.9166666666667,1,1
"30006","575","20","V1","ASL","adult","deaf",NA,"ASL","no_shift",NA,"sock",47.9166666666667,NA,0
"30006","575","21","V1","ASL","adult","deaf",NA,"ASL","C_T","1067","teddy",47.9166666666667,1.067,1
"30006","575","22","V1","ASL","adult","deaf",NA,"ASL","C_T","800","juice",47.9166666666667,0.8,1
"30006","575","23","V1","ASL","adult","deaf",NA,"ASL","C_T","1367","birdy",47.9166666666667,1.367,1
"30006","575","24","V1","ASL","adult","deaf",NA,"ASL","no_shift",NA,"cup",47.9166666666667,NA,0
"30006","575","25","V1","ASL","adult","deaf",NA,"ASL","C_T","1667","cookie",47.9166666666667,1.667,1
"30006","575","26","V1","ASL","adult","deaf",NA,"ASL","C_T","1033","doll",47.9166666666667,1.033,1
"30006","575","27","V1","ASL","adult","deaf",NA,"ASL","C_T","1733","cup",47.9166666666667,1.733,1
"30006","575","28","V1","ASL","adult","deaf",NA,"ASL","no_shift",NA,"juice",47.9166666666667,NA,0
"30006","575","29","V1","ASL","adult","deaf",NA,"ASL","C_T","233","ball",47.9166666666667,0.233,1
"30006","575","30","V1","ASL","adult","deaf",NA,"ASL","C_T","767","cookie",47.9166666666667,0.767,1
"30006","575","32","V1","ASL","adult","deaf",NA,"ASL","C_T","1867","cookie",47.9166666666667,1.867,1
"30006","575","33","V1","ASL","adult","deaf",NA,"ASL","C_T","1067","ball",47.9166666666667,1.067,1
"30006","575","34","V1","ASL","adult","deaf",NA,"ASL","C_T","1700","shoe",47.9166666666667,1.7,1
"30006","575","35","V1","ASL","adult","deaf",NA,"ASL","C_T","1600","teddy",47.9166666666667,1.6,1
"30006","575","36","V1","ASL","adult","deaf",NA,"ASL","no_shift",NA,"sock",47.9166666666667,NA,0
"30006","575","37","V1","ASL","adult","deaf",NA,"ASL","C_T","1500","kitty",47.9166666666667,1.5,1
"30006","575","38","V1","ASL","adult","deaf",NA,"ASL","C_T","1100","shoe",47.9166666666667,1.1,1
"30006","575","39","V1","ASL","adult","deaf",NA,"ASL","C_D","1567","juice",47.9166666666667,1.567,0
"30007","695","2","V1","ASL","adult","deaf",NA,"ASL","C_T","767","doll",57.9166666666667,0.767,1
"30007","695","3","V1","ASL","adult","deaf",NA,"ASL","C_T","400","sock",57.9166666666667,0.4,1
"30007","695","4","V1","ASL","adult","deaf",NA,"ASL","C_T","833","juice",57.9166666666667,0.833,1
"30007","695","5","V1","ASL","adult","deaf",NA,"ASL","C_T","567","cookie",57.9166666666667,0.567,1
"30007","695","6","V1","ASL","adult","deaf",NA,"ASL","C_T","333","cup",57.9166666666667,0.333,1
"30007","695","7","V1","ASL","adult","deaf",NA,"ASL","C_T","700","cookie",57.9166666666667,0.7,1
"30007","695","8","V1","ASL","adult","deaf",NA,"ASL","C_T","400","ball",57.9166666666667,0.4,1
"30007","695","9","V1","ASL","adult","deaf",NA,"ASL","C_T","400","birdy",57.9166666666667,0.4,1
"30007","695","10","V1","ASL","adult","deaf",NA,"ASL","C_T","200","sock",57.9166666666667,0.2,1
"30007","695","11","V1","ASL","adult","deaf",NA,"ASL","C_T","467","juice",57.9166666666667,0.467,1
"30007","695","12","V1","ASL","adult","deaf",NA,"ASL","C_T","267","ball",57.9166666666667,0.267,1
"30007","695","13","V1","ASL","adult","deaf",NA,"ASL","C_T","633","cookie",57.9166666666667,0.633,1
"30007","695","14","V1","ASL","adult","deaf",NA,"ASL","C_T","633","juice",57.9166666666667,0.633,1
"30007","695","15","V1","ASL","adult","deaf",NA,"ASL","C_T","300","cup",57.9166666666667,0.3,1
"30007","695","16","V1","ASL","adult","deaf",NA,"ASL","C_T","300","shoe",57.9166666666667,0.3,1
"30007","695","17","V1","ASL","adult","deaf",NA,"ASL","C_T","367","kitty",57.9166666666667,0.367,1
"30007","695","19","V1","ASL","adult","deaf",NA,"ASL","C_T","267","shoe",57.9166666666667,0.267,1
"30007","695","20","V1","ASL","adult","deaf",NA,"ASL","C_T","233","sock",57.9166666666667,0.233,1
"30007","695","21","V1","ASL","adult","deaf",NA,"ASL","C_T","533","teddy",57.9166666666667,0.533,1
"30007","695","22","V1","ASL","adult","deaf",NA,"ASL","C_T","567","juice",57.9166666666667,0.567,1
"30007","695","23","V1","ASL","adult","deaf",NA,"ASL","C_T","300","birdy",57.9166666666667,0.3,1
"30007","695","24","V1","ASL","adult","deaf",NA,"ASL","C_T","267","cup",57.9166666666667,0.267,1
"30007","695","25","V1","ASL","adult","deaf",NA,"ASL","C_T","400","cookie",57.9166666666667,0.4,1
"30007","695","26","V1","ASL","adult","deaf",NA,"ASL","C_T","267","doll",57.9166666666667,0.267,1
"30007","695","27","V1","ASL","adult","deaf",NA,"ASL","C_T","200","cup",57.9166666666667,0.2,1
"30007","695","28","V1","ASL","adult","deaf",NA,"ASL","C_T","467","juice",57.9166666666667,0.467,1
"30010","44","2","V1","ASL","child","hearing",NA,"ASL","C_T","1133","doll",3.66666666666667,1.133,1
"30010","44","3","V1","ASL","child","hearing",NA,"ASL","C_T","1000","car",3.66666666666667,1,1
"30010","44","4","V1","ASL","child","hearing",NA,"ASL","C_T","1333","ball",3.66666666666667,1.333,1
"30010","44","5","V1","ASL","child","hearing",NA,"ASL","C_T","967","teddy",3.66666666666667,0.967,1
"30010","44","6","V1","ASL","child","hearing",NA,"ASL","C_T","1000","shoe",3.66666666666667,1,1
"30010","44","7","V1","ASL","child","hearing",NA,"ASL","C_T","1133","birdy",3.66666666666667,1.133,1
"30010","44","8","V1","ASL","child","hearing",NA,"ASL","C_D","933","book",3.66666666666667,0.933,0
"30010","44","9","V1","ASL","child","hearing",NA,"ASL","C_D","1400","kitty",3.66666666666667,1.4,0
"30010","44","11","V1","ASL","child","hearing",NA,"ASL","C_T","1567","book",3.66666666666667,1.567,1
"30010","44","12","V1","ASL","child","hearing",NA,"ASL","C_T","1433","kitty",3.66666666666667,1.433,1
"30010","44","13","V1","ASL","child","hearing",NA,"ASL","C_T","767","teddy",3.66666666666667,0.767,1
"30010","44","14","V1","ASL","child","hearing",NA,"ASL","C_T","1433","ball",3.66666666666667,1.433,1
"30010","44","15","V1","ASL","child","hearing",NA,"ASL","C_D","867","birdy",3.66666666666667,0.867,0
"30010","44","16","V1","ASL","child","hearing",NA,"ASL","C_T","1200","doll",3.66666666666667,1.2,1
"30010","44","17","V1","ASL","child","hearing",NA,"ASL","C_T","1300","car",3.66666666666667,1.3,1
"30010","44","18","V1","ASL","child","hearing",NA,"ASL","C_T","2000","shoe",3.66666666666667,2,1
"30010","44","20","V1","ASL","child","hearing",NA,"ASL","C_T","700","birdy",3.66666666666667,0.7,1
"30010","44","21","V1","ASL","child","hearing",NA,"ASL","no_shift","633","book",3.66666666666667,0.633,0
"30010","44","24","V1","ASL","child","hearing",NA,"ASL","C_T","933","car",3.66666666666667,0.933,1
"30010","44","26","V1","ASL","child","hearing",NA,"ASL","C_D","2333","shoe",3.66666666666667,2.333,0
"30010","44","27","V1","ASL","child","hearing",NA,"ASL","C_D","2033","doll",3.66666666666667,2.033,0
"30010","44","30","V1","ASL","child","hearing",NA,"ASL","C_T","900","ball",3.66666666666667,0.9,1
"30010","44","31","V1","ASL","child","hearing",NA,"ASL","C_D","1133","teddy",3.66666666666667,1.133,0
"30010","44","33","V1","ASL","child","hearing",NA,"ASL","C_T","833","book",3.66666666666667,0.833,1
"30010","44","34","V1","ASL","child","hearing",NA,"ASL","C_T","2867","shoe",3.66666666666667,2.867,1
"30010","44","35","V1","ASL","child","hearing",NA,"ASL","C_T","1367","doll",3.66666666666667,1.367,1
"30010","44","36","V1","ASL","child","hearing",NA,"ASL","C_T","1267","car",3.66666666666667,1.267,1
"30011","16","2","V1","ASL","child","deaf",NA,"ASL","C_T","1633","doll",1.33333333333333,1.633,1
"30011","16","3","V1","ASL","child","deaf",NA,"ASL","C_D","1467","car",1.33333333333333,1.467,0
"30011","16","4","V1","ASL","child","deaf",NA,"ASL","C_T","2200","ball",1.33333333333333,2.2,1
"30011","16","5","V1","ASL","child","deaf",NA,"ASL","C_T","1633","teddy",1.33333333333333,1.633,1
"30011","16","6","V1","ASL","child","deaf",NA,"ASL","no_shift",NA,"shoe",1.33333333333333,NA,0
"30011","16","7","V1","ASL","child","deaf",NA,"ASL","no_shift","1867","birdy",1.33333333333333,1.867,0
"30011","16","9","V1","ASL","child","deaf",NA,"ASL","no_shift",NA,"kitty",1.33333333333333,NA,0
"30014","33","2","V1","ASL","child","deaf",NA,"ASL","no_shift",NA,"doll",2.75,NA,0
"30014","33","7","V1","ASL","child","deaf",NA,"ASL","C_T","1167","birdy",2.75,1.167,1
"30014","33","12","V1","ASL","child","deaf",NA,"ASL","C_D","2533","kitty",2.75,2.533,0
"30014","33","14","V1","ASL","child","deaf",NA,"ASL","C_T","1633","ball",2.75,1.633,1
"30014","33","15","V1","ASL","child","deaf",NA,"ASL","C_D","533","birdy",2.75,0.533,0
"30014","33","16","V1","ASL","child","deaf",NA,"ASL","no_shift",NA,"doll",2.75,NA,0
"30014","33","18","V1","ASL","child","deaf",NA,"ASL","C_T","1800","shoe",2.75,1.8,1
"30014","33","20","V1","ASL","child","deaf",NA,"ASL","C_T","1200","birdy",2.75,1.2,1
"30014","33","21","V1","ASL","child","deaf",NA,"ASL","no_shift",NA,"book",2.75,NA,0
"30014","33","22","V1","ASL","child","deaf",NA,"ASL","C_T","1367","ball",2.75,1.367,1
"30014","33","23","V1","ASL","child","deaf",NA,"ASL","C_T","1333","teddy",2.75,1.333,1
"30014","33","25","V1","ASL","child","deaf",NA,"ASL","C_T","1033","kitty",2.75,1.033,1
"30014","33","26","V1","ASL","child","deaf",NA,"ASL","C_T","633","shoe",2.75,0.633,1
"30014","33","27","V1","ASL","child","deaf",NA,"ASL","C_D","2400","doll",2.75,2.4,0
"30014","33","31","V1","ASL","child","deaf",NA,"ASL","C_T","1367","teddy",2.75,1.367,1
"30014","33","34","V1","ASL","child","deaf",NA,"ASL","C_D","1600","shoe",2.75,1.6,0
"30014","33","36","V1","ASL","child","deaf",NA,"ASL","C_T","1300","car",2.75,1.3,1
"30015","21","2","V1","ASL","child","deaf",NA,"ASL","C_T","1633","doll",1.75,1.633,1
"30015","21","3","V1","ASL","child","deaf",NA,"ASL","C_D","1300","car",1.75,1.3,0
"30015","21","4","V1","ASL","child","deaf",NA,"ASL","no_shift",NA,"ball",1.75,NA,0
"30015","21","9","V1","ASL","child","deaf",NA,"ASL","C_D","1200","kitty",1.75,1.2,0
"30015","21","13","V1","ASL","child","deaf",NA,"ASL","C_T","33","teddy",1.75,0.033,1
"30015","21","18","V1","ASL","child","deaf",NA,"ASL","C_T","800","shoe",1.75,0.8,1
"30015","21","26","V1","ASL","child","deaf",NA,"ASL","C_T","1467","shoe",1.75,1.467,1
"30015","21","32","V1","ASL","child","deaf",NA,"ASL","C_T","1133","birdy",1.75,1.133,1
"30015","21","33","V1","ASL","child","deaf",NA,"ASL","C_T","333","book",1.75,0.333,1
"30018","18","2","V1","ASL","child","hearing",NA,"ASL","C_D","1133","doll",1.5,1.133,0
"30018","18","3","V1","ASL","child","hearing",NA,"ASL","no_shift","2967","car",1.5,2.967,0
"30018","18","4","V1","ASL","child","hearing",NA,"ASL","C_T","1300","ball",1.5,1.3,1
"30018","18","5","V1","ASL","child","hearing",NA,"ASL","C_D","967","teddy",1.5,0.967,0
"30018","18","6","V1","ASL","child","hearing",NA,"ASL","C_D","1000","shoe",1.5,1,0
"30018","18","7","V1","ASL","child","hearing",NA,"ASL","C_D","1067","birdy",1.5,1.067,0
"30018","18","8","V1","ASL","child","hearing",NA,"ASL","C_T","1367","book",1.5,1.367,1
"30018","18","9","V1","ASL","child","hearing",NA,"ASL","C_T","700","kitty",1.5,0.7,1
"30018","18","12","V1","ASL","child","hearing",NA,"ASL","C_D","767","kitty",1.5,0.767,0
"30018","18","13","V1","ASL","child","hearing",NA,"ASL","C_T","600","teddy",1.5,0.6,1
"30018","18","14","V1","ASL","child","hearing",NA,"ASL","C_T","1033","ball",1.5,1.033,1
"30018","18","15","V1","ASL","child","hearing",NA,"ASL","C_T","667","birdy",1.5,0.667,1
"30018","18","16","V1","ASL","child","hearing",NA,"ASL","C_D","1233","doll",1.5,1.233,0
"30018","18","17","V1","ASL","child","hearing",NA,"ASL","C_T","700","car",1.5,0.7,1
"30018","18","18","V1","ASL","child","hearing",NA,"ASL","C_T","967","shoe",1.5,0.967,1
"30018","18","20","V1","ASL","child","hearing",NA,"ASL","C_D","800","birdy",1.5,0.8,0
"30018","18","21","V1","ASL","child","hearing",NA,"ASL","C_D","1133","book",1.5,1.133,0
"30018","18","22","V1","ASL","child","hearing",NA,"ASL","C_T","800","ball",1.5,0.8,1
"30018","18","23","V1","ASL","child","hearing",NA,"ASL","C_D","767","teddy",1.5,0.767,0
"30018","18","24","V1","ASL","child","hearing",NA,"ASL","C_D","867","car",1.5,0.867,0
"30018","18","25","V1","ASL","child","hearing",NA,"ASL","C_T","733","kitty",1.5,0.733,1
"30018","18","26","V1","ASL","child","hearing",NA,"ASL","C_D","567","shoe",1.5,0.567,0
"30018","18","27","V1","ASL","child","hearing",NA,"ASL","C_T","1200","doll",1.5,1.2,1
"30018","18","29","V1","ASL","child","hearing",NA,"ASL","C_T","1033","kitty",1.5,1.033,1
"30018","18","30","V1","ASL","child","hearing",NA,"ASL","C_T","700","ball",1.5,0.7,1
"30018","18","31","V1","ASL","child","hearing",NA,"ASL","C_D","667","teddy",1.5,0.667,0
"30018","18","32","V1","ASL","child","hearing",NA,"ASL","C_T","767","birdy",1.5,0.767,1
"30018","18","33","V1","ASL","child","hearing",NA,"ASL","C_D","1000","book",1.5,1,0
"30018","18","34","V1","ASL","child","hearing",NA,"ASL","C_T","867","shoe",1.5,0.867,1
"30019","29","2","V1","ASL","child","deaf",NA,"ASL","no_shift",NA,"doll",2.41666666666667,NA,0
"30019","29","3","V1","ASL","child","deaf",NA,"ASL","C_T","1233","car",2.41666666666667,1.233,1
"30019","29","4","V1","ASL","child","deaf",NA,"ASL","no_shift",NA,"ball",2.41666666666667,NA,0
"30019","29","5","V1","ASL","child","deaf",NA,"ASL","C_T","933","teddy",2.41666666666667,0.933,1
"30019","29","6","V1","ASL","child","deaf",NA,"ASL","C_T","933","shoe",2.41666666666667,0.933,1
"30019","29","7","V1","ASL","child","deaf",NA,"ASL","C_T","900","birdy",2.41666666666667,0.9,1
"30019","29","8","V1","ASL","child","deaf",NA,"ASL","C_T","1333","book",2.41666666666667,1.333,1
"30019","29","11","V1","ASL","child","deaf",NA,"ASL","C_T","667","book",2.41666666666667,0.667,1
"30019","29","12","V1","ASL","child","deaf",NA,"ASL","C_T","633","kitty",2.41666666666667,0.633,1
"30019","29","13","V1","ASL","child","deaf",NA,"ASL","C_T","567","teddy",2.41666666666667,0.567,1
"30019","29","14","V1","ASL","child","deaf",NA,"ASL","C_T","933","ball",2.41666666666667,0.933,1
"30019","29","16","V1","ASL","child","deaf",NA,"ASL","C_D","1167","doll",2.41666666666667,1.167,0
"30019","29","17","V1","ASL","child","deaf",NA,"ASL","C_T","833","car",2.41666666666667,0.833,1
"30019","29","18","V1","ASL","child","deaf",NA,"ASL","C_T","767","shoe",2.41666666666667,0.767,1
"30019","29","20","V1","ASL","child","deaf",NA,"ASL","C_T","800","birdy",2.41666666666667,0.8,1
"30019","29","22","V1","ASL","child","deaf",NA,"ASL","C_T","1767","ball",2.41666666666667,1.767,1
"30019","29","23","V1","ASL","child","deaf",NA,"ASL","C_D","767","teddy",2.41666666666667,0.767,0
"30019","29","24","V1","ASL","child","deaf",NA,"ASL","C_T","767","car",2.41666666666667,0.767,1
"30019","29","25","V1","ASL","child","deaf",NA,"ASL","C_T","667","kitty",2.41666666666667,0.667,1
"30019","29","26","V1","ASL","child","deaf",NA,"ASL","C_T","767","shoe",2.41666666666667,0.767,1
"30019","29","27","V1","ASL","child","deaf",NA,"ASL","C_D","1100","doll",2.41666666666667,1.1,0
"30019","29","30","V1","ASL","child","deaf",NA,"ASL","C_T","967","ball",2.41666666666667,0.967,1
"30019","29","31","V1","ASL","child","deaf",NA,"ASL","C_T","800","teddy",2.41666666666667,0.8,1
"30019","29","35","V1","ASL","child","deaf",NA,"ASL","C_D","1200","doll",2.41666666666667,1.2,0
"30021","694","2","V1","ASL","adult","deaf",NA,"ASL","C_T","967","doll",57.8333333333333,0.967,1
"30021","694","3","V1","ASL","adult","deaf",NA,"ASL","C_T","867","sock",57.8333333333333,0.867,1
"30021","694","4","V1","ASL","adult","deaf",NA,"ASL","C_T","833","juice",57.8333333333333,0.833,1
"30021","694","5","V1","ASL","adult","deaf",NA,"ASL","C_T","1067","cookie",57.8333333333333,1.067,1
"30021","694","6","V1","ASL","adult","deaf",NA,"ASL","C_T","700","cup",57.8333333333333,0.7,1
"30021","694","7","V1","ASL","adult","deaf",NA,"ASL","C_T","733","cookie",57.8333333333333,0.733,1
"30021","694","8","V1","ASL","adult","deaf",NA,"ASL","C_T","867","ball",57.8333333333333,0.867,1
"30021","694","9","V1","ASL","adult","deaf",NA,"ASL","C_T","1167","birdy",57.8333333333333,1.167,1
"30021","694","10","V1","ASL","adult","deaf",NA,"ASL","C_T","767","sock",57.8333333333333,0.767,1
"30021","694","11","V1","ASL","adult","deaf",NA,"ASL","C_T","667","juice",57.8333333333333,0.667,1
"30021","694","12","V1","ASL","adult","deaf",NA,"ASL","C_T","1000","ball",57.8333333333333,1,1
"30021","694","13","V1","ASL","adult","deaf",NA,"ASL","C_T","1000","cookie",57.8333333333333,1,1
"30021","694","14","V1","ASL","adult","deaf",NA,"ASL","C_T","767","juice",57.8333333333333,0.767,1
"30021","694","15","V1","ASL","adult","deaf",NA,"ASL","C_T","600","cup",57.8333333333333,0.6,1
"30021","694","16","V1","ASL","adult","deaf",NA,"ASL","C_D","733","shoe",57.8333333333333,0.733,0
"30021","694","17","V1","ASL","adult","deaf",NA,"ASL","C_T","967","kitty",57.8333333333333,0.967,1
"30021","694","19","V1","ASL","adult","deaf",NA,"ASL","C_T","667","shoe",57.8333333333333,0.667,1
"30021","694","20","V1","ASL","adult","deaf",NA,"ASL","C_T","600","sock",57.8333333333333,0.6,1
"30021","694","21","V1","ASL","adult","deaf",NA,"ASL","C_T","1333","teddy",57.8333333333333,1.333,1
"30021","694","22","V1","ASL","adult","deaf",NA,"ASL","C_T","767","juice",57.8333333333333,0.767,1
"30021","694","23","V1","ASL","adult","deaf",NA,"ASL","C_T","967","birdy",57.8333333333333,0.967,1
"30021","694","24","V1","ASL","adult","deaf",NA,"ASL","C_T","767","cup",57.8333333333333,0.767,1
"30021","694","25","V1","ASL","adult","deaf",NA,"ASL","C_T","800","cookie",57.8333333333333,0.8,1
"30021","694","26","V1","ASL","adult","deaf",NA,"ASL","C_T","967","doll",57.8333333333333,0.967,1
"30021","694","27","V1","ASL","adult","deaf",NA,"ASL","C_T","567","cup",57.8333333333333,0.567,1
"30021","694","28","V1","ASL","adult","deaf",NA,"ASL","C_T","633","juice",57.8333333333333,0.633,1
"30021","694","29","V1","ASL","adult","deaf",NA,"ASL","C_T","533","ball",57.8333333333333,0.533,1
"30021","694","30","V1","ASL","adult","deaf",NA,"ASL","C_T","867","cookie",57.8333333333333,0.867,1
"30021","694","32","V1","ASL","adult","deaf",NA,"ASL","C_T","1100","cookie",57.8333333333333,1.1,1
"30021","694","33","V1","ASL","adult","deaf",NA,"ASL","C_T","733","ball",57.8333333333333,0.733,1
"30021","694","34","V1","ASL","adult","deaf",NA,"ASL","C_T","633","shoe",57.8333333333333,0.633,1
"30021","694","35","V1","ASL","adult","deaf",NA,"ASL","C_T","1233","teddy",57.8333333333333,1.233,1
"30021","694","36","V1","ASL","adult","deaf",NA,"ASL","C_T","767","sock",57.8333333333333,0.767,1
"30021","694","37","V1","ASL","adult","deaf",NA,"ASL","C_T","1033","kitty",57.8333333333333,1.033,1
"30021","694","38","V1","ASL","adult","deaf",NA,"ASL","C_T","600","shoe",57.8333333333333,0.6,1
"30021","694","39","V1","ASL","adult","deaf",NA,"ASL","C_T","767","juice",57.8333333333333,0.767,1
"30022","350","2","V1","ASL","adult","deaf",NA,"ASL","C_T","667","doll",29.1666666666667,0.667,1
"30022","350","3","V1","ASL","adult","deaf",NA,"ASL","C_T","467","sock",29.1666666666667,0.467,1
"30022","350","4","V1","ASL","adult","deaf",NA,"ASL","C_T","633","juice",29.1666666666667,0.633,1
"30022","350","5","V1","ASL","adult","deaf",NA,"ASL","C_T","967","cookie",29.1666666666667,0.967,1
"30022","350","6","V1","ASL","adult","deaf",NA,"ASL","C_T","733","cup",29.1666666666667,0.733,1
"30022","350","7","V1","ASL","adult","deaf",NA,"ASL","C_T","1100","cookie",29.1666666666667,1.1,1
"30022","350","8","V1","ASL","adult","deaf",NA,"ASL","C_T","900","ball",29.1666666666667,0.9,1
"30022","350","9","V1","ASL","adult","deaf",NA,"ASL","C_T","633","birdy",29.1666666666667,0.633,1
"30022","350","10","V1","ASL","adult","deaf",NA,"ASL","C_T","700","sock",29.1666666666667,0.7,1
"30022","350","11","V1","ASL","adult","deaf",NA,"ASL","C_T","1733","juice",29.1666666666667,1.733,1
"30022","350","12","V1","ASL","adult","deaf",NA,"ASL","C_T","333","ball",29.1666666666667,0.333,1
"30022","350","13","V1","ASL","adult","deaf",NA,"ASL","C_D","800","cookie",29.1666666666667,0.8,0
"30022","350","14","V1","ASL","adult","deaf",NA,"ASL","C_T","633","juice",29.1666666666667,0.633,1
"30022","350","15","V1","ASL","adult","deaf",NA,"ASL","C_T","400","cup",29.1666666666667,0.4,1
"30022","350","16","V1","ASL","adult","deaf",NA,"ASL","C_D","667","shoe",29.1666666666667,0.667,0
"30022","350","17","V1","ASL","adult","deaf",NA,"ASL","C_T","633","kitty",29.1666666666667,0.633,1
"30022","350","19","V1","ASL","adult","deaf",NA,"ASL","C_T","600","shoe",29.1666666666667,0.6,1
"30022","350","20","V1","ASL","adult","deaf",NA,"ASL","C_T","1933","sock",29.1666666666667,1.933,1
"30022","350","21","V1","ASL","adult","deaf",NA,"ASL","C_T","1133","teddy",29.1666666666667,1.133,1
"30022","350","22","V1","ASL","adult","deaf",NA,"ASL","C_T","433","juice",29.1666666666667,0.433,1
"30022","350","23","V1","ASL","adult","deaf",NA,"ASL","C_T","433","birdy",29.1666666666667,0.433,1
"30022","350","24","V1","ASL","adult","deaf",NA,"ASL","C_T","100","cup",29.1666666666667,0.1,1
"30024","21","3","V1","ASL","child","deaf",NA,"ASL","no_shift",NA,"car",1.75,NA,0
"30024","21","4","V1","ASL","child","deaf",NA,"ASL","C_D","1700","ball",1.75,1.7,0
"30024","21","5","V1","ASL","child","deaf",NA,"ASL","C_T","2200","teddy",1.75,2.2,1
"30024","21","6","V1","ASL","child","deaf",NA,"ASL","C_T","1200","shoe",1.75,1.2,1
"30024","21","7","V1","ASL","child","deaf",NA,"ASL","C_T","1600","birdy",1.75,1.6,1
"30024","21","8","V1","ASL","child","deaf",NA,"ASL","C_T","533","book",1.75,0.533,1
"30024","21","9","V1","ASL","child","deaf",NA,"ASL","C_D","1533","kitty",1.75,1.533,0
"30024","21","14","V1","ASL","child","deaf",NA,"ASL","C_T","1067","ball",1.75,1.067,1
"30024","21","15","V1","ASL","child","deaf",NA,"ASL","C_T","733","birdy",1.75,0.733,1
"30024","21","16","V1","ASL","child","deaf",NA,"ASL","C_D","1167","doll",1.75,1.167,0
"30024","21","17","V1","ASL","child","deaf",NA,"ASL","C_T","667","car",1.75,0.667,1
"30024","21","18","V1","ASL","child","deaf",NA,"ASL","C_D","700","shoe",1.75,0.7,0
"30024","21","20","V1","ASL","child","deaf",NA,"ASL","C_T","1100","birdy",1.75,1.1,1
"30024","21","22","V1","ASL","child","deaf",NA,"ASL","no_shift",NA,"ball",1.75,NA,0
"30024","21","23","V1","ASL","child","deaf",NA,"ASL","C_D","567","teddy",1.75,0.567,0
"30024","21","27","V1","ASL","child","deaf",NA,"ASL","C_T","967","doll",1.75,0.967,1
"30024","21","29","V1","ASL","child","deaf",NA,"ASL","C_T","733","kitty",1.75,0.733,1
"30024","21","30","V1","ASL","child","deaf",NA,"ASL","C_T","1433","ball",1.75,1.433,1
"30024","21","32","V1","ASL","child","deaf",NA,"ASL","C_D","533","birdy",1.75,0.533,0
"30024","21","33","V1","ASL","child","deaf",NA,"ASL","C_T","1200","book",1.75,1.2,1
"30024","21","34","V1","ASL","child","deaf",NA,"ASL","C_D","533","shoe",1.75,0.533,0
"30026","36","2","V1","ASL","child","deaf",NA,"ASL","C_T","1267","doll",3,1.267,1
"30026","36","3","V1","ASL","child","deaf",NA,"ASL","C_T","1133","car",3,1.133,1
"30026","36","4","V1","ASL","child","deaf",NA,"ASL","C_T","1333","ball",3,1.333,1
"30026","36","7","V1","ASL","child","deaf",NA,"ASL","C_T","1133","birdy",3,1.133,1
"30026","36","8","V1","ASL","child","deaf",NA,"ASL","C_T","1233","book",3,1.233,1
"30026","36","9","V1","ASL","child","deaf",NA,"ASL","C_D","1100","kitty",3,1.1,0
"30026","36","11","V1","ASL","child","deaf",NA,"ASL","C_T","1100","book",3,1.1,1
"30026","36","13","V1","ASL","child","deaf",NA,"ASL","C_T","933","teddy",3,0.933,1
"30026","36","14","V1","ASL","child","deaf",NA,"ASL","C_T","933","ball",3,0.933,1
"30026","36","15","V1","ASL","child","deaf",NA,"ASL","C_D","800","birdy",3,0.8,0
"30026","36","16","V1","ASL","child","deaf",NA,"ASL","C_T","1067","doll",3,1.067,1
"30026","36","18","V1","ASL","child","deaf",NA,"ASL","C_T","1033","shoe",3,1.033,1
"30026","36","20","V1","ASL","child","deaf",NA,"ASL","C_T","1867","birdy",3,1.867,1
"30026","36","21","V1","ASL","child","deaf",NA,"ASL","C_D","2800","book",3,2.8,0
"30026","36","22","V1","ASL","child","deaf",NA,"ASL","C_T","1367","ball",3,1.367,1
"30026","36","23","V1","ASL","child","deaf",NA,"ASL","C_T","1433","teddy",3,1.433,1
"30026","36","24","V1","ASL","child","deaf",NA,"ASL","C_T","1800","car",3,1.8,1
"30026","36","25","V1","ASL","child","deaf",NA,"ASL","C_T","633","kitty",3,0.633,1
"30026","36","26","V1","ASL","child","deaf",NA,"ASL","C_D","433","shoe",3,0.433,0
"30026","36","27","V1","ASL","child","deaf",NA,"ASL","C_T","1267","doll",3,1.267,1
"30026","36","33","V1","ASL","child","deaf",NA,"ASL","C_T","867","book",3,0.867,1
"30027","379","2","V1","ASL","adult","deaf",NA,"ASL","C_T","1033","doll",31.5833333333333,1.033,1
"30027","379","3","V1","ASL","adult","deaf",NA,"ASL","C_T","900","car",31.5833333333333,0.9,1
"30027","379","4","V1","ASL","adult","deaf",NA,"ASL","C_T","1000","ball",31.5833333333333,1,1
"30027","379","5","V1","ASL","adult","deaf",NA,"ASL","C_T","1133","teddy",31.5833333333333,1.133,1
"30027","379","6","V1","ASL","adult","deaf",NA,"ASL","C_T","900","shoe",31.5833333333333,0.9,1
"30027","379","7","V1","ASL","adult","deaf",NA,"ASL","C_T","733","birdy",31.5833333333333,0.733,1
"30027","379","8","V1","ASL","adult","deaf",NA,"ASL","C_T","700","book",31.5833333333333,0.7,1
"30027","379","9","V1","ASL","adult","deaf",NA,"ASL","C_T","533","kitty",31.5833333333333,0.533,1
"30027","379","11","V1","ASL","adult","deaf",NA,"ASL","C_T","1133","book",31.5833333333333,1.133,1
"30027","379","12","V1","ASL","adult","deaf",NA,"ASL","C_T","833","kitty",31.5833333333333,0.833,1
"30027","379","13","V1","ASL","adult","deaf",NA,"ASL","C_T","700","teddy",31.5833333333333,0.7,1
"30027","379","14","V1","ASL","adult","deaf",NA,"ASL","C_T","1133","ball",31.5833333333333,1.133,1
"30027","379","15","V1","ASL","adult","deaf",NA,"ASL","C_T","400","birdy",31.5833333333333,0.4,1
"30027","379","16","V1","ASL","adult","deaf",NA,"ASL","C_D","767","doll",31.5833333333333,0.767,0
"30027","379","17","V1","ASL","adult","deaf",NA,"ASL","C_T","867","car",31.5833333333333,0.867,1
"30027","379","18","V1","ASL","adult","deaf",NA,"ASL","C_T","633","shoe",31.5833333333333,0.633,1
"30027","379","20","V1","ASL","adult","deaf",NA,"ASL","C_T","767","birdy",31.5833333333333,0.767,1
"30027","379","21","V1","ASL","adult","deaf",NA,"ASL","C_T","1067","book",31.5833333333333,1.067,1
"30027","379","22","V1","ASL","adult","deaf",NA,"ASL","C_T","600","ball",31.5833333333333,0.6,1
"30027","379","23","V1","ASL","adult","deaf",NA,"ASL","C_T","600","teddy",31.5833333333333,0.6,1
"30027","379","24","V1","ASL","adult","deaf",NA,"ASL","C_T","600","car",31.5833333333333,0.6,1
"30027","379","25","V1","ASL","adult","deaf",NA,"ASL","C_T","867","kitty",31.5833333333333,0.867,1
"30027","379","26","V1","ASL","adult","deaf",NA,"ASL","C_T","467","shoe",31.5833333333333,0.467,1
"30027","379","27","V1","ASL","adult","deaf",NA,"ASL","C_T","767","doll",31.5833333333333,0.767,1
"30027","379","29","V1","ASL","adult","deaf",NA,"ASL","C_T","800","kitty",31.5833333333333,0.8,1
"30027","379","30","V1","ASL","adult","deaf",NA,"ASL","C_T","600","ball",31.5833333333333,0.6,1
"30027","379","31","V1","ASL","adult","deaf",NA,"ASL","C_T","967","teddy",31.5833333333333,0.967,1
"30027","379","32","V1","ASL","adult","deaf",NA,"ASL","C_T","833","birdy",31.5833333333333,0.833,1
"30027","379","33","V1","ASL","adult","deaf",NA,"ASL","C_T","1267","book",31.5833333333333,1.267,1
"30027","379","34","V1","ASL","adult","deaf",NA,"ASL","C_T","600","shoe",31.5833333333333,0.6,1
"30027","379","35","V1","ASL","adult","deaf",NA,"ASL","C_T","633","doll",31.5833333333333,0.633,1
"30027","379","36","V1","ASL","adult","deaf",NA,"ASL","C_T","833","car",31.5833333333333,0.833,1
"30028","27","2","V1","ASL","child","hearing",NA,"ASL","C_T","167","doll",2.25,0.167,1
"30028","27","3","V1","ASL","child","hearing",NA,"ASL","C_T","1733","car",2.25,1.733,1
"30028","27","4","V1","ASL","child","hearing",NA,"ASL","C_T","800","ball",2.25,0.8,1
"30028","27","6","V1","ASL","child","hearing",NA,"ASL","C_T","900","shoe",2.25,0.9,1
"30028","27","7","V1","ASL","child","hearing",NA,"ASL","C_D","1533","birdy",2.25,1.533,0
"30028","27","8","V1","ASL","child","hearing",NA,"ASL","C_T","1133","book",2.25,1.133,1
"30028","27","9","V1","ASL","child","hearing",NA,"ASL","C_D","1200","kitty",2.25,1.2,0
"30028","27","17","V1","ASL","child","hearing",NA,"ASL","C_D","67","car",2.25,0.067,0
"30028","27","18","V1","ASL","child","hearing",NA,"ASL","C_T","1133","shoe",2.25,1.133,1
"30028","27","21","V1","ASL","child","hearing",NA,"ASL","C_D","333","book",2.25,0.333,0
"30028","27","23","V1","ASL","child","hearing",NA,"ASL","C_T","800","teddy",2.25,0.8,1
"30028","27","24","V1","ASL","child","hearing",NA,"ASL","C_D","400","car",2.25,0.4,0
"30029","35","2","V1","ASL","child","deaf",NA,"ASL","C_T","833","doll",2.91666666666667,0.833,1
"30029","35","3","V1","ASL","child","deaf",NA,"ASL","C_T","1267","car",2.91666666666667,1.267,1
"30029","35","4","V1","ASL","child","deaf",NA,"ASL","C_T","1867","ball",2.91666666666667,1.867,1
"30029","35","5","V1","ASL","child","deaf",NA,"ASL","C_T","1667","teddy",2.91666666666667,1.667,1
"30029","35","6","V1","ASL","child","deaf",NA,"ASL","C_T","767","shoe",2.91666666666667,0.767,1
"30029","35","7","V1","ASL","child","deaf",NA,"ASL","C_T","1367","birdy",2.91666666666667,1.367,1
"30029","35","8","V1","ASL","child","deaf",NA,"ASL","C_T","633","book",2.91666666666667,0.633,1
"30029","35","9","V1","ASL","child","deaf",NA,"ASL","C_T","1067","kitty",2.91666666666667,1.067,1
"30029","35","11","V1","ASL","child","deaf",NA,"ASL","C_T","1533","book",2.91666666666667,1.533,1
"30029","35","12","V1","ASL","child","deaf",NA,"ASL","C_T","1200","kitty",2.91666666666667,1.2,1
"30029","35","13","V1","ASL","child","deaf",NA,"ASL","C_T","700","teddy",2.91666666666667,0.7,1
"30029","35","14","V1","ASL","child","deaf",NA,"ASL","C_D","1467","ball",2.91666666666667,1.467,0
"30029","35","15","V1","ASL","child","deaf",NA,"ASL","no_shift",NA,"birdy",2.91666666666667,NA,0
"30029","35","16","V1","ASL","child","deaf",NA,"ASL","C_D","1000","doll",2.91666666666667,1,0
"30029","35","17","V1","ASL","child","deaf",NA,"ASL","C_T","1133","car",2.91666666666667,1.133,1
"30029","35","18","V1","ASL","child","deaf",NA,"ASL","C_T","1133","shoe",2.91666666666667,1.133,1
"30029","35","20","V1","ASL","child","deaf",NA,"ASL","C_T","767","birdy",2.91666666666667,0.767,1
"30029","35","21","V1","ASL","child","deaf",NA,"ASL","C_T","733","book",2.91666666666667,0.733,1
"30029","35","22","V1","ASL","child","deaf",NA,"ASL","C_T","1633","ball",2.91666666666667,1.633,1
"30029","35","23","V1","ASL","child","deaf",NA,"ASL","C_T","1567","teddy",2.91666666666667,1.567,1
"30029","35","24","V1","ASL","child","deaf",NA,"ASL","C_T","1167","car",2.91666666666667,1.167,1
"30029","35","25","V1","ASL","child","deaf",NA,"ASL","C_T","1033","kitty",2.91666666666667,1.033,1
"30029","35","26","V1","ASL","child","deaf",NA,"ASL","C_T","833","shoe",2.91666666666667,0.833,1
"30029","35","27","V1","ASL","child","deaf",NA,"ASL","C_D","1300","doll",2.91666666666667,1.3,0
"30029","35","29","V1","ASL","child","deaf",NA,"ASL","C_D","1233","kitty",2.91666666666667,1.233,0
"30029","35","30","V1","ASL","child","deaf",NA,"ASL","C_T","867","ball",2.91666666666667,0.867,1
"30029","35","31","V1","ASL","child","deaf",NA,"ASL","C_T","1300","teddy",2.91666666666667,1.3,1
"30029","35","33","V1","ASL","child","deaf",NA,"ASL","C_T","1733","book",2.91666666666667,1.733,1
"30029","35","34","V1","ASL","child","deaf",NA,"ASL","C_T","1333","shoe",2.91666666666667,1.333,1
"30029","35","35","V1","ASL","child","deaf",NA,"ASL","C_D","1367","doll",2.91666666666667,1.367,0
"30029","35","36","V1","ASL","child","deaf",NA,"ASL","C_T","867","car",2.91666666666667,0.867,1
"30036","42","2","V1","ASL","child","deaf",NA,"ASL","C_T","567","doll",3.5,0.567,1
"30036","42","3","V1","ASL","child","deaf",NA,"ASL","C_T","1167","car",3.5,1.167,1
"30036","42","4","V1","ASL","child","deaf",NA,"ASL","C_T","2000","ball",3.5,2,1
"30036","42","5","V1","ASL","child","deaf",NA,"ASL","C_T","1567","teddy",3.5,1.567,1
"30036","42","6","V1","ASL","child","deaf",NA,"ASL","C_T","633","shoe",3.5,0.633,1
"30036","42","7","V1","ASL","child","deaf",NA,"ASL","C_T","967","birdy",3.5,0.967,1
"30036","42","8","V1","ASL","child","deaf",NA,"ASL","C_D","900","book",3.5,0.9,0
"30037","21","2","V1","ASL","child","hearing",NA,"ASL","C_T","900","doll",1.75,0.9,1
"30037","21","3","V1","ASL","child","hearing",NA,"ASL","C_D","767","car",1.75,0.767,0
"30037","21","4","V1","ASL","child","hearing",NA,"ASL","no_shift",NA,"ball",1.75,NA,0
"30037","21","5","V1","ASL","child","hearing",NA,"ASL","no_shift",NA,"teddy",1.75,NA,0
"30037","21","6","V1","ASL","child","hearing",NA,"ASL","C_T","867","shoe",1.75,0.867,1
"30037","21","7","V1","ASL","child","hearing",NA,"ASL","C_D","1167","birdy",1.75,1.167,0
"30037","21","8","V1","ASL","child","hearing",NA,"ASL","C_D","1267","book",1.75,1.267,0
"30037","21","9","V1","ASL","child","hearing",NA,"ASL","C_T","700","kitty",1.75,0.7,1
"30037","21","16","V1","ASL","child","hearing",NA,"ASL","C_T","933","doll",1.75,0.933,1
"30037","21","18","V1","ASL","child","hearing",NA,"ASL","C_T","600","shoe",1.75,0.6,1
"30037","21","20","V1","ASL","child","hearing",NA,"ASL","C_T","1167","birdy",1.75,1.167,1
"30037","21","21","V1","ASL","child","hearing",NA,"ASL","C_T","1967","book",1.75,1.967,1
"30037","21","22","V1","ASL","child","hearing",NA,"ASL","C_T","1567","ball",1.75,1.567,1
"30037","21","23","V1","ASL","child","hearing",NA,"ASL","C_T","2167","teddy",1.75,2.167,1
"30037","21","24","V1","ASL","child","hearing",NA,"ASL","C_T","633","car",1.75,0.633,1
"30037","21","30","V1","ASL","child","hearing",NA,"ASL","C_T","600","ball",1.75,0.6,1
"30038","16","2","V1","ASL","child","hearing",NA,"ASL","C_D","400","doll",1.33333333333333,0.4,0
"30038","16","3","V1","ASL","child","hearing",NA,"ASL","C_T","1700","car",1.33333333333333,1.7,1
"30038","16","5","V1","ASL","child","hearing",NA,"ASL","C_T","2333","teddy",1.33333333333333,2.333,1
"30038","16","11","V1","ASL","child","hearing",NA,"ASL","C_T","1233","book",1.33333333333333,1.233,1
"30038","16","12","V1","ASL","child","hearing",NA,"ASL","C_T","1067","kitty",1.33333333333333,1.067,1
"30038","16","16","V1","ASL","child","hearing",NA,"ASL","no_shift","2967","doll",1.33333333333333,2.967,0
"30038","16","21","V1","ASL","child","hearing",NA,"ASL","C_D","2100","book",1.33333333333333,2.1,0
"30038","16","33","V1","ASL","child","hearing",NA,"ASL","no_shift",NA,"book",1.33333333333333,NA,0
"30038","16","34","V1","ASL","child","hearing",NA,"ASL","C_T","2167","shoe",1.33333333333333,2.167,1
"30038","16","36","V1","ASL","child","hearing",NA,"ASL","C_D","1600","car",1.33333333333333,1.6,0
"30044","276","2","V1","ASL","adult","deaf",NA,"ASL","C_T","967","doll",23,0.967,1
"30044","276","3","V1","ASL","adult","deaf",NA,"ASL","C_T","767","car",23,0.767,1
"30044","276","4","V1","ASL","adult","deaf",NA,"ASL","C_T","533","ball",23,0.533,1
"30044","276","5","V1","ASL","adult","deaf",NA,"ASL","C_T","500","teddy",23,0.5,1
"30044","276","6","V1","ASL","adult","deaf",NA,"ASL","C_T","800","shoe",23,0.8,1
"30044","276","7","V1","ASL","adult","deaf",NA,"ASL","C_T","500","birdy",23,0.5,1
"30044","276","8","V1","ASL","adult","deaf",NA,"ASL","C_T","467","book",23,0.467,1
"30044","276","9","V1","ASL","adult","deaf",NA,"ASL","C_T","500","kitty",23,0.5,1
"30044","276","11","V1","ASL","adult","deaf",NA,"ASL","C_T","1000","book",23,1,1
"30044","276","12","V1","ASL","adult","deaf",NA,"ASL","C_T","600","kitty",23,0.6,1
"30044","276","13","V1","ASL","adult","deaf",NA,"ASL","C_T","367","teddy",23,0.367,1
"30044","276","14","V1","ASL","adult","deaf",NA,"ASL","C_T","533","ball",23,0.533,1
"30044","276","15","V1","ASL","adult","deaf",NA,"ASL","C_T","367","birdy",23,0.367,1
"30044","276","16","V1","ASL","adult","deaf",NA,"ASL","C_T","800","doll",23,0.8,1
"30044","276","17","V1","ASL","adult","deaf",NA,"ASL","C_T","567","car",23,0.567,1
"30044","276","18","V1","ASL","adult","deaf",NA,"ASL","C_T","667","shoe",23,0.667,1
"30044","276","20","V1","ASL","adult","deaf",NA,"ASL","C_T","533","birdy",23,0.533,1
"30044","276","21","V1","ASL","adult","deaf",NA,"ASL","C_T","600","book",23,0.6,1
"30044","276","22","V1","ASL","adult","deaf",NA,"ASL","C_T","500","ball",23,0.5,1
"30044","276","23","V1","ASL","adult","deaf",NA,"ASL","C_T","367","teddy",23,0.367,1
"30044","276","24","V1","ASL","adult","deaf",NA,"ASL","C_T","500","car",23,0.5,1
"30044","276","25","V1","ASL","adult","deaf",NA,"ASL","C_T","400","kitty",23,0.4,1
"30044","276","26","V1","ASL","adult","deaf",NA,"ASL","C_T","267","shoe",23,0.267,1
"30044","276","27","V1","ASL","adult","deaf",NA,"ASL","C_T","867","doll",23,0.867,1
"30044","276","29","V1","ASL","adult","deaf",NA,"ASL","C_T","600","kitty",23,0.6,1
"30044","276","30","V1","ASL","adult","deaf",NA,"ASL","C_T","400","ball",23,0.4,1
"30044","276","31","V1","ASL","adult","deaf",NA,"ASL","C_T","533","teddy",23,0.533,1
"30044","276","32","V1","ASL","adult","deaf",NA,"ASL","C_T","267","birdy",23,0.267,1
"30044","276","33","V1","ASL","adult","deaf",NA,"ASL","C_T","433","book",23,0.433,1
"30044","276","34","V1","ASL","adult","deaf",NA,"ASL","C_T","200","shoe",23,0.2,1
"30044","276","35","V1","ASL","adult","deaf",NA,"ASL","C_T","533","doll",23,0.533,1
"30044","276","36","V1","ASL","adult","deaf",NA,"ASL","C_T","533","car",23,0.533,1
"30046","22","2","V1","ASL","child","hearing",NA,"ASL","C_T","1333","doll",1.83333333333333,1.333,1
"30046","22","3","V1","ASL","child","hearing",NA,"ASL","C_T","1967","car",1.83333333333333,1.967,1
"30046","22","4","V1","ASL","child","hearing",NA,"ASL","C_D","2200","ball",1.83333333333333,2.2,0
"30046","22","5","V1","ASL","child","hearing",NA,"ASL","C_D","833","teddy",1.83333333333333,0.833,0
"30046","22","6","V1","ASL","child","hearing",NA,"ASL","C_T","1467","shoe",1.83333333333333,1.467,1
"30046","22","7","V1","ASL","child","hearing",NA,"ASL","C_T","1233","birdy",1.83333333333333,1.233,1
"30046","22","8","V1","ASL","child","hearing",NA,"ASL","C_T","1700","book",1.83333333333333,1.7,1
"30046","22","9","V1","ASL","child","hearing",NA,"ASL","C_T","1633","kitty",1.83333333333333,1.633,1
"30046","22","11","V1","ASL","child","hearing",NA,"ASL","C_T","1400","book",1.83333333333333,1.4,1
"30046","22","13","V1","ASL","child","hearing",NA,"ASL","no_shift",NA,"teddy",1.83333333333333,NA,0
"30046","22","14","V1","ASL","child","hearing",NA,"ASL","C_D","1300","ball",1.83333333333333,1.3,0
"30046","22","15","V1","ASL","child","hearing",NA,"ASL","C_D","600","birdy",1.83333333333333,0.6,0
"30046","22","16","V1","ASL","child","hearing",NA,"ASL","C_T","1067","doll",1.83333333333333,1.067,1
"30046","22","17","V1","ASL","child","hearing",NA,"ASL","C_T","700","car",1.83333333333333,0.7,1
"30046","22","18","V1","ASL","child","hearing",NA,"ASL","C_T","333","shoe",1.83333333333333,0.333,1
"30046","22","20","V1","ASL","child","hearing",NA,"ASL","C_T","767","birdy",1.83333333333333,0.767,1
"30048","19","2","V1","ASL","child","deaf",NA,"ASL","C_T","1100","doll",1.58333333333333,1.1,1
"30048","19","3","V1","ASL","child","deaf",NA,"ASL","C_T","1433","car",1.58333333333333,1.433,1
"30048","19","4","V1","ASL","child","deaf",NA,"ASL","C_T","1067","ball",1.58333333333333,1.067,1
"30048","19","5","V1","ASL","child","deaf",NA,"ASL","C_D","867","teddy",1.58333333333333,0.867,0
"30048","19","6","V1","ASL","child","deaf",NA,"ASL","C_T","1233","shoe",1.58333333333333,1.233,1
"30048","19","7","V1","ASL","child","deaf",NA,"ASL","C_D","1167","birdy",1.58333333333333,1.167,0
"30048","19","9","V1","ASL","child","deaf",NA,"ASL","C_T","2267","kitty",1.58333333333333,2.267,1
"30048","19","11","V1","ASL","child","deaf",NA,"ASL","C_T","1100","book",1.58333333333333,1.1,1
"30048","19","12","V1","ASL","child","deaf",NA,"ASL","C_T","2400","kitty",1.58333333333333,2.4,1
"30048","19","13","V1","ASL","child","deaf",NA,"ASL","C_T","667","teddy",1.58333333333333,0.667,1
"30048","19","14","V1","ASL","child","deaf",NA,"ASL","no_shift","2500","ball",1.58333333333333,2.5,0
"30048","19","18","V1","ASL","child","deaf",NA,"ASL","C_T","1500","shoe",1.58333333333333,1.5,1
"30048","19","20","V1","ASL","child","deaf",NA,"ASL","C_T","1333","birdy",1.58333333333333,1.333,1
"30048","19","21","V1","ASL","child","deaf",NA,"ASL","C_T","1100","book",1.58333333333333,1.1,1
"30048","19","23","V1","ASL","child","deaf",NA,"ASL","C_T","700","teddy",1.58333333333333,0.7,1
"30048","19","24","V1","ASL","child","deaf",NA,"ASL","C_T","1133","car",1.58333333333333,1.133,1
"30048","19","26","V1","ASL","child","deaf",NA,"ASL","C_T","2400","shoe",1.58333333333333,2.4,1
"30048","19","29","V1","ASL","child","deaf",NA,"ASL","C_T","1300","kitty",1.58333333333333,1.3,1
"30048","19","31","V1","ASL","child","deaf",NA,"ASL","C_T","2500","teddy",1.58333333333333,2.5,1
"30048","19","32","V1","ASL","child","deaf",NA,"ASL","C_T","800","birdy",1.58333333333333,0.8,1
"30048","19","34","V1","ASL","child","deaf",NA,"ASL","C_T","1500","shoe",1.58333333333333,1.5,1
"30048","19","36","V1","ASL","child","deaf",NA,"ASL","C_T","1300","car",1.58333333333333,1.3,1
"30059","575","2","V1","ASL","adult","deaf",NA,"ASL","C_D","800","doll",47.9166666666667,0.8,0
"30059","575","3","V1","ASL","adult","deaf",NA,"ASL","C_T","600","sock",47.9166666666667,0.6,1
"30059","575","4","V1","ASL","adult","deaf",NA,"ASL","C_T","700","juice",47.9166666666667,0.7,1
"30059","575","5","V1","ASL","adult","deaf",NA,"ASL","C_T","1033","cookie",47.9166666666667,1.033,1
"30059","575","6","V1","ASL","adult","deaf",NA,"ASL","C_T","600","cup",47.9166666666667,0.6,1
"30059","575","7","V1","ASL","adult","deaf",NA,"ASL","C_T","1100","cookie",47.9166666666667,1.1,1
"30059","575","8","V1","ASL","adult","deaf",NA,"ASL","C_T","500","ball",47.9166666666667,0.5,1
"30059","575","9","V1","ASL","adult","deaf",NA,"ASL","C_T","700","birdy",47.9166666666667,0.7,1
"30059","575","10","V1","ASL","adult","deaf",NA,"ASL","C_T","133","sock",47.9166666666667,0.133,1
"30059","575","11","V1","ASL","adult","deaf",NA,"ASL","C_T","467","juice",47.9166666666667,0.467,1
"30059","575","12","V1","ASL","adult","deaf",NA,"ASL","C_T","500","ball",47.9166666666667,0.5,1
"30059","575","13","V1","ASL","adult","deaf",NA,"ASL","C_T","800","cookie",47.9166666666667,0.8,1
"30059","575","14","V1","ASL","adult","deaf",NA,"ASL","C_T","667","juice",47.9166666666667,0.667,1
"30059","575","15","V1","ASL","adult","deaf",NA,"ASL","C_T","467","cup",47.9166666666667,0.467,1
"30059","575","16","V1","ASL","adult","deaf",NA,"ASL","C_T","1167","shoe",47.9166666666667,1.167,1
"30059","575","17","V1","ASL","adult","deaf",NA,"ASL","C_D","767","kitty",47.9166666666667,0.767,0
"30059","575","19","V1","ASL","adult","deaf",NA,"ASL","C_T","567","shoe",47.9166666666667,0.567,1
"30059","575","20","V1","ASL","adult","deaf",NA,"ASL","C_T","667","sock",47.9166666666667,0.667,1
"30059","575","21","V1","ASL","adult","deaf",NA,"ASL","C_T","1133","teddy",47.9166666666667,1.133,1
"30059","575","22","V1","ASL","adult","deaf",NA,"ASL","C_T","567","juice",47.9166666666667,0.567,1
"30059","575","23","V1","ASL","adult","deaf",NA,"ASL","C_T","800","birdy",47.9166666666667,0.8,1
"30059","575","24","V1","ASL","adult","deaf",NA,"ASL","C_T","467","cup",47.9166666666667,0.467,1
"30059","575","25","V1","ASL","adult","deaf",NA,"ASL","C_T","333","cookie",47.9166666666667,0.333,1
"30059","575","26","V1","ASL","adult","deaf",NA,"ASL","C_T","833","doll",47.9166666666667,0.833,1
"30059","575","27","V1","ASL","adult","deaf",NA,"ASL","C_T","900","cup",47.9166666666667,0.9,1
"30059","575","28","V1","ASL","adult","deaf",NA,"ASL","C_T","1033","juice",47.9166666666667,1.033,1
"30059","575","29","V1","ASL","adult","deaf",NA,"ASL","C_T","367","ball",47.9166666666667,0.367,1
"30059","575","30","V1","ASL","adult","deaf",NA,"ASL","C_T","700","cookie",47.9166666666667,0.7,1
"30059","575","32","V1","ASL","adult","deaf",NA,"ASL","C_T","933","cookie",47.9166666666667,0.933,1
"30059","575","33","V1","ASL","adult","deaf",NA,"ASL","C_T","300","ball",47.9166666666667,0.3,1
"30059","575","34","V1","ASL","adult","deaf",NA,"ASL","C_T","167","shoe",47.9166666666667,0.167,1
"30059","575","35","V1","ASL","adult","deaf",NA,"ASL","C_T","733","teddy",47.9166666666667,0.733,1
"30059","575","36","V1","ASL","adult","deaf",NA,"ASL","C_T","633","sock",47.9166666666667,0.633,1
"30059","575","37","V1","ASL","adult","deaf",NA,"ASL","C_T","600","kitty",47.9166666666667,0.6,1
"30059","575","38","V1","ASL","adult","deaf",NA,"ASL","C_T","533","shoe",47.9166666666667,0.533,1
"30059","575","39","V1","ASL","adult","deaf",NA,"ASL","C_T","600","juice",47.9166666666667,0.6,1
"30060","246","2","V1","ASL","adult","hearing",NA,"ASL","C_T","733","doll",20.5,0.733,1
"30060","246","3","V1","ASL","adult","hearing",NA,"ASL","C_T","733","sock",20.5,0.733,1
"30060","246","4","V1","ASL","adult","hearing",NA,"ASL","C_T","700","juice",20.5,0.7,1
"30060","246","5","V1","ASL","adult","hearing",NA,"ASL","C_T","467","cookie",20.5,0.467,1
"30060","246","6","V1","ASL","adult","hearing",NA,"ASL","C_T","567","cup",20.5,0.567,1
"30060","246","7","V1","ASL","adult","hearing",NA,"ASL","C_T","600","cookie",20.5,0.6,1
"30060","246","8","V1","ASL","adult","hearing",NA,"ASL","C_T","367","ball",20.5,0.367,1
"30060","246","9","V1","ASL","adult","hearing",NA,"ASL","C_T","767","birdy",20.5,0.767,1
"30060","246","10","V1","ASL","adult","hearing",NA,"ASL","C_T","833","sock",20.5,0.833,1
"30060","246","11","V1","ASL","adult","hearing",NA,"ASL","C_T","533","juice",20.5,0.533,1
"30060","246","12","V1","ASL","adult","hearing",NA,"ASL","C_T","333","ball",20.5,0.333,1
"30060","246","13","V1","ASL","adult","hearing",NA,"ASL","C_T","633","cookie",20.5,0.633,1
"30060","246","14","V1","ASL","adult","hearing",NA,"ASL","C_T","633","juice",20.5,0.633,1
"30060","246","15","V1","ASL","adult","hearing",NA,"ASL","C_T","667","cup",20.5,0.667,1
"30060","246","16","V1","ASL","adult","hearing",NA,"ASL","C_T","267","shoe",20.5,0.267,1
"30060","246","17","V1","ASL","adult","hearing",NA,"ASL","C_T","600","kitty",20.5,0.6,1
"30060","246","19","V1","ASL","adult","hearing",NA,"ASL","C_T","567","shoe",20.5,0.567,1
"30060","246","20","V1","ASL","adult","hearing",NA,"ASL","C_T","667","sock",20.5,0.667,1
"30060","246","21","V1","ASL","adult","hearing",NA,"ASL","C_T","633","teddy",20.5,0.633,1
"30060","246","22","V1","ASL","adult","hearing",NA,"ASL","C_T","567","juice",20.5,0.567,1
"30060","246","23","V1","ASL","adult","hearing",NA,"ASL","C_T","633","birdy",20.5,0.633,1
"30060","246","24","V1","ASL","adult","hearing",NA,"ASL","C_T","467","cup",20.5,0.467,1
"30060","246","25","V1","ASL","adult","hearing",NA,"ASL","C_T","800","cookie",20.5,0.8,1
"30060","246","26","V1","ASL","adult","hearing",NA,"ASL","C_T","700","doll",20.5,0.7,1
"30060","246","27","V1","ASL","adult","hearing",NA,"ASL","C_T","367","cup",20.5,0.367,1
"30060","246","28","V1","ASL","adult","hearing",NA,"ASL","C_T","433","juice",20.5,0.433,1
"30060","246","29","V1","ASL","adult","hearing",NA,"ASL","C_T","300","ball",20.5,0.3,1
"30060","246","30","V1","ASL","adult","hearing",NA,"ASL","C_T","633","cookie",20.5,0.633,1
"30060","246","32","V1","ASL","adult","hearing",NA,"ASL","C_T","500","cookie",20.5,0.5,1
"30060","246","33","V1","ASL","adult","hearing",NA,"ASL","C_T","167","ball",20.5,0.167,1
"30060","246","34","V1","ASL","adult","hearing",NA,"ASL","C_T","433","shoe",20.5,0.433,1
"30060","246","35","V1","ASL","adult","hearing",NA,"ASL","C_T","733","teddy",20.5,0.733,1
"30060","246","36","V1","ASL","adult","hearing",NA,"ASL","C_T","300","sock",20.5,0.3,1
"30060","246","37","V1","ASL","adult","hearing",NA,"ASL","C_D","433","kitty",20.5,0.433,0
"30060","246","38","V1","ASL","adult","hearing",NA,"ASL","C_T","233","shoe",20.5,0.233,1
"30060","246","39","V1","ASL","adult","hearing",NA,"ASL","C_T","500","juice",20.5,0.5,1
"30036","42","2","V1","ASL","child","deaf",NA,"ASL","C_T","800","doll",3.5,0.8,1
"30036","42","3","V1","ASL","child","deaf",NA,"ASL","C_T","1000","car",3.5,1,1
"30036","42","4","V1","ASL","child","deaf",NA,"ASL","C_T","1967","ball",3.5,1.967,1
"30036","42","5","V1","ASL","child","deaf",NA,"ASL","C_T","1633","teddy",3.5,1.633,1
"30036","42","6","V1","ASL","child","deaf",NA,"ASL","C_T","767","shoe",3.5,0.767,1
"30036","42","7","V1","ASL","child","deaf",NA,"ASL","C_T","900","birdy",3.5,0.9,1
"30036","42","8","V1","ASL","child","deaf",NA,"ASL","C_D","700","book",3.5,0.7,0
"30036","42","9","V1","ASL","child","deaf",NA,"ASL","C_T","700","kitty",3.5,0.7,1
"30036","42","11","V1","ASL","child","deaf",NA,"ASL","C_T","1433","book",3.5,1.433,1
"30036","42","12","V1","ASL","child","deaf",NA,"ASL","C_D","567","kitty",3.5,0.567,0
"30036","42","13","V1","ASL","child","deaf",NA,"ASL","C_T","333","teddy",3.5,0.333,1
"30036","42","14","V1","ASL","child","deaf",NA,"ASL","C_T","1800","ball",3.5,1.8,1
"30036","42","16","V1","ASL","child","deaf",NA,"ASL","C_D","400","doll",3.5,0.4,0
"30036","42","17","V1","ASL","child","deaf",NA,"ASL","C_T","567","car",3.5,0.567,1
"30013","31","2","V2","ASL","child","deaf",NA,"ASL","C_T","2800","doll",2.58333333333333,2.8,1
"30013","31","3","V2","ASL","child","deaf",NA,"ASL","C_T","2300","car",2.58333333333333,2.3,1
"30013","31","7","V2","ASL","child","deaf",NA,"ASL","C_T","2867","book",2.58333333333333,2.867,1
"30013","31","12","V2","ASL","child","deaf",NA,"ASL","C_T","1200","kitty",2.58333333333333,1.2,1
"30013","31","13","V2","ASL","child","deaf",NA,"ASL","C_T","2167","teddy",2.58333333333333,2.167,1
"30013","31","16","V2","ASL","child","deaf",NA,"ASL","no_shift",NA,"doll",2.58333333333333,NA,0
"30013","31","17","V2","ASL","child","deaf",NA,"ASL","C_T","2733","car",2.58333333333333,2.733,1
"30013","31","21","V2","ASL","child","deaf",NA,"ASL","no_shift",NA,"book",2.58333333333333,NA,0
"30013","31","23","V2","ASL","child","deaf",NA,"ASL","C_T","900","teddy",2.58333333333333,0.9,1
"30013","31","26","V2","ASL","child","deaf",NA,"ASL","C_T","2467","shoe",2.58333333333333,2.467,1
"30013","31","27","V2","ASL","child","deaf",NA,"ASL","C_T","2633","doll",2.58333333333333,2.633,1
"30013","31","32","V2","ASL","child","deaf",NA,"ASL","C_T","1167","book",2.58333333333333,1.167,1
"30013","31","34","V2","ASL","child","deaf",NA,"ASL","C_T","1433","car",2.58333333333333,1.433,1
"30013","31","36","V2","ASL","child","deaf",NA,"ASL","C_T","1000","ball",2.58333333333333,1,1
"30017","35","2","V2","ASL","child","deaf",NA,"ASL","C_T","933","doll",2.91666666666667,0.933,1
"30017","35","3","V2","ASL","child","deaf",NA,"ASL","C_T","900","car",2.91666666666667,0.9,1
"30017","35","4","V2","ASL","child","deaf",NA,"ASL","C_T","1033","ball",2.91666666666667,1.033,1
"30017","35","5","V2","ASL","child","deaf",NA,"ASL","C_T","1267","teddy",2.91666666666667,1.267,1
"30017","35","6","V2","ASL","child","deaf",NA,"ASL","C_T","1133","birdy",2.91666666666667,1.133,1
"30017","35","7","V2","ASL","child","deaf",NA,"ASL","C_T","1300","book",2.91666666666667,1.3,1
"30017","35","8","V2","ASL","child","deaf",NA,"ASL","C_D","933","kitty",2.91666666666667,0.933,0
"30017","35","9","V2","ASL","child","deaf",NA,"ASL","C_T","1733","shoe",2.91666666666667,1.733,1
"30017","35","11","V2","ASL","child","deaf",NA,"ASL","C_T","1033","book",2.91666666666667,1.033,1
"30017","35","12","V2","ASL","child","deaf",NA,"ASL","C_T","1600","kitty",2.91666666666667,1.6,1
"30017","35","13","V2","ASL","child","deaf",NA,"ASL","C_T","767","teddy",2.91666666666667,0.767,1
"30017","35","14","V2","ASL","child","deaf",NA,"ASL","C_D","100","ball",2.91666666666667,0.1,0
"30017","35","15","V2","ASL","child","deaf",NA,"ASL","C_D","833","birdy",2.91666666666667,0.833,0
"30017","35","16","V2","ASL","child","deaf",NA,"ASL","C_T","1333","doll",2.91666666666667,1.333,1
"30017","35","17","V2","ASL","child","deaf",NA,"ASL","C_T","900","car",2.91666666666667,0.9,1
"30017","35","23","V2","ASL","child","deaf",NA,"ASL","C_T","833","teddy",2.91666666666667,0.833,1
"30017","35","24","V2","ASL","child","deaf",NA,"ASL","C_D","2167","car",2.91666666666667,2.167,0
"30017","35","26","V2","ASL","child","deaf",NA,"ASL","C_D","1900","shoe",2.91666666666667,1.9,0
"30017","35","27","V2","ASL","child","deaf",NA,"ASL","C_T","1900","doll",2.91666666666667,1.9,1
"30017","35","30","V2","ASL","child","deaf",NA,"ASL","C_D","1700","teddy",2.91666666666667,1.7,0
"30017","35","31","V2","ASL","child","deaf",NA,"ASL","C_T","2200","birdy",2.91666666666667,2.2,1
"30017","35","33","V2","ASL","child","deaf",NA,"ASL","C_T","1033","shoe",2.91666666666667,1.033,1
"30025","26","2","V2","ASL","child","hearing",NA,"ASL","C_T","1567","doll",2.16666666666667,1.567,1
"30025","26","3","V2","ASL","child","hearing",NA,"ASL","C_T","2100","car",2.16666666666667,2.1,1
"30025","26","4","V2","ASL","child","hearing",NA,"ASL","C_D","167","ball",2.16666666666667,0.167,0
"30025","26","7","V2","ASL","child","hearing",NA,"ASL","C_T","1367","book",2.16666666666667,1.367,1
"30025","26","8","V2","ASL","child","hearing",NA,"ASL","C_T","2867","kitty",2.16666666666667,2.867,1
"30025","26","11","V2","ASL","child","hearing",NA,"ASL","no_shift",NA,"book",2.16666666666667,NA,0
"30025","26","12","V2","ASL","child","hearing",NA,"ASL","C_T","1800","kitty",2.16666666666667,1.8,1
"30025","26","14","V2","ASL","child","hearing",NA,"ASL","C_T","400","ball",2.16666666666667,0.4,1
"30025","26","15","V2","ASL","child","hearing",NA,"ASL","C_T","1200","birdy",2.16666666666667,1.2,1
"30025","26","16","V2","ASL","child","hearing",NA,"ASL","C_D","100","doll",2.16666666666667,0.1,0
"30025","26","23","V2","ASL","child","hearing",NA,"ASL","C_T","600","teddy",2.16666666666667,0.6,1
"30025","26","24","V2","ASL","child","hearing",NA,"ASL","C_D","2633","car",2.16666666666667,2.633,0
"30025","26","25","V2","ASL","child","hearing",NA,"ASL","C_T","1300","kitty",2.16666666666667,1.3,1
"30025","26","26","V2","ASL","child","hearing",NA,"ASL","C_T","1000","shoe",2.16666666666667,1,1
"30025","26","27","V2","ASL","child","hearing",NA,"ASL","C_T","1033","doll",2.16666666666667,1.033,1
"30047","35","4","V2","ASL","child","deaf",NA,"ASL","C_T","1000","ball",2.91666666666667,1,1
"30047","35","7","V2","ASL","child","deaf",NA,"ASL","C_T","1200","book",2.91666666666667,1.2,1
"30047","35","8","V2","ASL","child","deaf",NA,"ASL","C_T","867","kitty",2.91666666666667,0.867,1
"30047","35","9","V2","ASL","child","deaf",NA,"ASL","C_D","400","shoe",2.91666666666667,0.4,0
"30047","35","14","V2","ASL","child","deaf",NA,"ASL","C_T","1200","ball",2.91666666666667,1.2,1
"30047","35","15","V2","ASL","child","deaf",NA,"ASL","C_T","733","birdy",2.91666666666667,0.733,1
"30049","33","2","V2","ASL","child","deaf",NA,"ASL","C_T","1600","doll",2.75,1.6,1
"30049","33","3","V2","ASL","child","deaf",NA,"ASL","C_T","1533","car",2.75,1.533,1
"30049","33","4","V2","ASL","child","deaf",NA,"ASL","C_D","633","ball",2.75,0.633,0
"30049","33","7","V2","ASL","child","deaf",NA,"ASL","C_T","1400","book",2.75,1.4,1
"30049","33","9","V2","ASL","child","deaf",NA,"ASL","C_T","1633","shoe",2.75,1.633,1
"30049","33","12","V2","ASL","child","deaf",NA,"ASL","C_T","1200","kitty",2.75,1.2,1
"30049","33","13","V2","ASL","child","deaf",NA,"ASL","C_T","1033","teddy",2.75,1.033,1
"30049","33","14","V2","ASL","child","deaf",NA,"ASL","C_T","2033","ball",2.75,2.033,1
"30049","33","15","V2","ASL","child","deaf",NA,"ASL","no_shift",NA,"birdy",2.75,NA,0
"30049","33","17","V2","ASL","child","deaf",NA,"ASL","C_T","1467","car",2.75,1.467,1
"30049","33","18","V2","ASL","child","deaf",NA,"ASL","C_T","1067","shoe",2.75,1.067,1
"30049","33","20","V2","ASL","child","deaf",NA,"ASL","C_T","767","birdy",2.75,0.767,1
"30049","33","21","V2","ASL","child","deaf",NA,"ASL","C_T","1467","book",2.75,1.467,1
"30049","33","22","V2","ASL","child","deaf",NA,"ASL","C_T","1033","ball",2.75,1.033,1
"30049","33","23","V2","ASL","child","deaf",NA,"ASL","C_T","833","teddy",2.75,0.833,1
"30049","33","27","V2","ASL","child","deaf",NA,"ASL","C_T","1433","doll",2.75,1.433,1
"30049","33","29","V2","ASL","child","deaf",NA,"ASL","C_D","2600","kitty",2.75,2.6,0
"30049","33","30","V2","ASL","child","deaf",NA,"ASL","C_T","1200","teddy",2.75,1.2,1
"30049","33","31","V2","ASL","child","deaf",NA,"ASL","no_shift",NA,"birdy",2.75,NA,0
"30049","33","32","V2","ASL","child","deaf",NA,"ASL","C_T","1133","book",2.75,1.133,1
"30050","18","2","V2","ASL","child","hearing",NA,"ASL","C_D","1467","doll",1.5,1.467,0
"30050","18","3","V2","ASL","child","hearing",NA,"ASL","C_T","333","car",1.5,0.333,1
"30050","18","4","V2","ASL","child","hearing",NA,"ASL","C_D","467","ball",1.5,0.467,0
"30050","18","5","V2","ASL","child","hearing",NA,"ASL","C_T","467","teddy",1.5,0.467,1
"30050","18","6","V2","ASL","child","hearing",NA,"ASL","no_shift",NA,"birdy",1.5,NA,0
"30050","18","8","V2","ASL","child","hearing",NA,"ASL","no_shift",NA,"kitty",1.5,NA,0
"30050","18","9","V2","ASL","child","hearing",NA,"ASL","no_shift",NA,"shoe",1.5,NA,0
"30050","18","14","V2","ASL","child","hearing",NA,"ASL","C_T","1900","ball",1.5,1.9,1
"30050","18","30","V2","ASL","child","hearing",NA,"ASL","C_T","133","teddy",1.5,0.133,1
"30050","18","32","V2","ASL","child","hearing",NA,"ASL","no_shift",NA,"book",1.5,NA,0
"30051","25","2","V2","ASL","child","deaf",NA,"ASL","C_T","1267","doll",2.08333333333333,1.267,1
"30051","25","5","V2","ASL","child","deaf",NA,"ASL","C_D","1667","teddy",2.08333333333333,1.667,0
"30051","25","6","V2","ASL","child","deaf",NA,"ASL","C_D","233","birdy",2.08333333333333,0.233,0
"30051","25","8","V2","ASL","child","deaf",NA,"ASL","C_T","1533","kitty",2.08333333333333,1.533,1
"30051","25","9","V2","ASL","child","deaf",NA,"ASL","C_T","1633","shoe",2.08333333333333,1.633,1
"30051","25","12","V2","ASL","child","deaf",NA,"ASL","C_D","2000","kitty",2.08333333333333,2,0
"30051","25","16","V2","ASL","child","deaf",NA,"ASL","no_shift",NA,"doll",2.08333333333333,NA,0
"30051","25","21","V2","ASL","child","deaf",NA,"ASL","C_D","567","book",2.08333333333333,0.567,0
"30051","25","22","V2","ASL","child","deaf",NA,"ASL","C_T","1367","ball",2.08333333333333,1.367,1
"30051","25","23","V2","ASL","child","deaf",NA,"ASL","C_D","1200","teddy",2.08333333333333,1.2,0
"30051","25","29","V2","ASL","child","deaf",NA,"ASL","C_D","367","kitty",2.08333333333333,0.367,0
"30051","25","31","V2","ASL","child","deaf",NA,"ASL","C_D","100","birdy",2.08333333333333,0.1,0
"30051","25","36","V2","ASL","child","deaf",NA,"ASL","C_T","2300","ball",2.08333333333333,2.3,1
"30052","28","2","V2","ASL","child","deaf",NA,"ASL","no_shift",NA,"doll",2.33333333333333,NA,0
"30052","28","3","V2","ASL","child","deaf",NA,"ASL","C_T","1800","car",2.33333333333333,1.8,1
"30052","28","4","V2","ASL","child","deaf",NA,"ASL","C_T","1133","ball",2.33333333333333,1.133,1
"30052","28","5","V2","ASL","child","deaf",NA,"ASL","no_shift",NA,"teddy",2.33333333333333,NA,0
"30052","28","6","V2","ASL","child","deaf",NA,"ASL","C_T","967","birdy",2.33333333333333,0.967,1
"30052","28","7","V2","ASL","child","deaf",NA,"ASL","C_T","1200","book",2.33333333333333,1.2,1
"30052","28","8","V2","ASL","child","deaf",NA,"ASL","no_shift",NA,"kitty",2.33333333333333,NA,0
"30052","28","9","V2","ASL","child","deaf",NA,"ASL","C_T","967","shoe",2.33333333333333,0.967,1
"30052","28","11","V2","ASL","child","deaf",NA,"ASL","C_T","1167","book",2.33333333333333,1.167,1
"30052","28","12","V2","ASL","child","deaf",NA,"ASL","C_T","1000","kitty",2.33333333333333,1,1
"30052","28","13","V2","ASL","child","deaf",NA,"ASL","C_T","2967","teddy",2.33333333333333,2.967,1
"30052","28","14","V2","ASL","child","deaf",NA,"ASL","C_T","2067","ball",2.33333333333333,2.067,1
"30052","28","15","V2","ASL","child","deaf",NA,"ASL","C_T","900","birdy",2.33333333333333,0.9,1
"30052","28","17","V2","ASL","child","deaf",NA,"ASL","C_T","1733","car",2.33333333333333,1.733,1
"30052","28","18","V2","ASL","child","deaf",NA,"ASL","no_shift",NA,"shoe",2.33333333333333,NA,0
"30052","28","20","V2","ASL","child","deaf",NA,"ASL","C_D","1467","birdy",2.33333333333333,1.467,0
"30052","28","27","V2","ASL","child","deaf",NA,"ASL","C_D","967","doll",2.33333333333333,0.967,0
"30052","28","29","V2","ASL","child","deaf",NA,"ASL","C_T","1433","kitty",2.33333333333333,1.433,1
"30052","28","31","V2","ASL","child","deaf",NA,"ASL","C_D","933","birdy",2.33333333333333,0.933,0
"30052","28","35","V2","ASL","child","deaf",NA,"ASL","C_T","1833","doll",2.33333333333333,1.833,1
"30066","35","2","V2","ASL","child","hearing",NA,"ASL","C_T","300","doll",2.91666666666667,0.3,1
"30066","35","4","V2","ASL","child","hearing",NA,"ASL","C_T","1300","ball",2.91666666666667,1.3,1
"30066","35","5","V2","ASL","child","hearing",NA,"ASL","C_D","300","teddy",2.91666666666667,0.3,0
"30066","35","6","V2","ASL","child","hearing",NA,"ASL","C_T","1500","birdy",2.91666666666667,1.5,1
"30066","35","7","V2","ASL","child","hearing",NA,"ASL","C_D","633","book",2.91666666666667,0.633,0
"30066","35","8","V2","ASL","child","hearing",NA,"ASL","C_T","1600","kitty",2.91666666666667,1.6,1
"30066","35","9","V2","ASL","child","hearing",NA,"ASL","C_T","1233","shoe",2.91666666666667,1.233,1
"30066","35","11","V2","ASL","child","hearing",NA,"ASL","C_T","1067","book",2.91666666666667,1.067,1
"30066","35","13","V2","ASL","child","hearing",NA,"ASL","C_D","867","teddy",2.91666666666667,0.867,0
"30066","35","15","V2","ASL","child","hearing",NA,"ASL","C_T","1267","birdy",2.91666666666667,1.267,1
"30066","35","16","V2","ASL","child","hearing",NA,"ASL","C_T","1900","doll",2.91666666666667,1.9,1
"30066","35","17","V2","ASL","child","hearing",NA,"ASL","C_T","1000","car",2.91666666666667,1,1
"30066","35","18","V2","ASL","child","hearing",NA,"ASL","C_D","2000","shoe",2.91666666666667,2,0
"30066","35","20","V2","ASL","child","hearing",NA,"ASL","no_shift",NA,"birdy",2.91666666666667,NA,0
"30066","35","21","V2","ASL","child","hearing",NA,"ASL","no_shift",NA,"book",2.91666666666667,NA,0
"30066","35","24","V2","ASL","child","hearing",NA,"ASL","C_D","833","car",2.91666666666667,0.833,0
"30066","35","25","V2","ASL","child","hearing",NA,"ASL","C_T","1367","kitty",2.91666666666667,1.367,1
"30066","35","27","V2","ASL","child","hearing",NA,"ASL","C_T","2233","doll",2.91666666666667,2.233,1
"30066","35","31","V2","ASL","child","hearing",NA,"ASL","C_T","1100","birdy",2.91666666666667,1.1,1
"30066","35","32","V2","ASL","child","hearing",NA,"ASL","C_T","1167","book",2.91666666666667,1.167,1
"30066","35","33","V2","ASL","child","hearing",NA,"ASL","C_T","1800","shoe",2.91666666666667,1.8,1
"30066","35","34","V2","ASL","child","hearing",NA,"ASL","C_T","1133","car",2.91666666666667,1.133,1
"30066","35","35","V2","ASL","child","hearing",NA,"ASL","C_T","1033","doll",2.91666666666667,1.033,1
"30068","53","2","V2","ASL","child","hearing",NA,"ASL","C_T","933","doll",4.41666666666667,0.933,1
"30068","53","3","V2","ASL","child","hearing",NA,"ASL","C_D","2267","car",4.41666666666667,2.267,0
"30068","53","6","V2","ASL","child","hearing",NA,"ASL","C_D","767","birdy",4.41666666666667,0.767,0
"30068","53","9","V2","ASL","child","hearing",NA,"ASL","C_T","1433","shoe",4.41666666666667,1.433,1
"30068","53","11","V2","ASL","child","hearing",NA,"ASL","C_T","1067","book",4.41666666666667,1.067,1
"30068","53","12","V2","ASL","child","hearing",NA,"ASL","no_shift",NA,"kitty",4.41666666666667,NA,0
"30068","53","14","V2","ASL","child","hearing",NA,"ASL","C_T","1600","ball",4.41666666666667,1.6,1
"30068","53","20","V2","ASL","child","hearing",NA,"ASL","C_D","700","birdy",4.41666666666667,0.7,0
"30068","53","21","V2","ASL","child","hearing",NA,"ASL","C_T","1067","book",4.41666666666667,1.067,1
"30068","53","22","V2","ASL","child","hearing",NA,"ASL","C_T","1033","ball",4.41666666666667,1.033,1
"30068","53","23","V2","ASL","child","hearing",NA,"ASL","C_T","967","teddy",4.41666666666667,0.967,1
"30068","53","24","V2","ASL","child","hearing",NA,"ASL","C_T","633","car",4.41666666666667,0.633,1
"30068","53","27","V2","ASL","child","hearing",NA,"ASL","C_T","1000","doll",4.41666666666667,1,1
"30068","53","29","V2","ASL","child","hearing",NA,"ASL","C_T","1200","kitty",4.41666666666667,1.2,1
"30068","53","30","V2","ASL","child","hearing",NA,"ASL","C_T","1033","teddy",4.41666666666667,1.033,1
"30068","53","32","V2","ASL","child","hearing",NA,"ASL","C_D","900","book",4.41666666666667,0.9,0
"30068","53","33","V2","ASL","child","hearing",NA,"ASL","C_T","1933","shoe",4.41666666666667,1.933,1
"30068","53","34","V2","ASL","child","hearing",NA,"ASL","C_T","1467","car",4.41666666666667,1.467,1
"30068","53","35","V2","ASL","child","hearing",NA,"ASL","C_T","800","doll",4.41666666666667,0.8,1
"30068","53","36","V2","ASL","child","hearing",NA,"ASL","C_T","833","ball",4.41666666666667,0.833,1
"30069","295","2","V2","ASL","adult",NA,NA,"ASL","C_T","1500","doll",24.5833333333333,1.5,1
"30069","295","3","V2","ASL","adult",NA,NA,"ASL","C_T","833","car",24.5833333333333,0.833,1
"30069","295","4","V2","ASL","adult",NA,NA,"ASL","C_T","2500","ball",24.5833333333333,2.5,1
"30069","295","5","V2","ASL","adult",NA,NA,"ASL","C_T","833","teddy",24.5833333333333,0.833,1
"30069","295","6","V2","ASL","adult",NA,NA,"ASL","C_D","333","birdy",24.5833333333333,0.333,0
"30069","295","7","V2","ASL","adult",NA,NA,"ASL","C_T","167","book",24.5833333333333,0.167,1
"30069","295","8","V2","ASL","adult",NA,NA,"ASL","C_T","733","kitty",24.5833333333333,0.733,1
"30069","295","9","V2","ASL","adult",NA,NA,"ASL","C_T","267","shoe",24.5833333333333,0.267,1
"30069","295","11","V2","ASL","adult",NA,NA,"ASL","no_shift",NA,"book",24.5833333333333,NA,0
"30069","295","12","V2","ASL","adult",NA,NA,"ASL","C_T","233","kitty",24.5833333333333,0.233,1
"30069","295","13","V2","ASL","adult",NA,NA,"ASL","C_T","267","teddy",24.5833333333333,0.267,1
"30069","295","14","V2","ASL","adult",NA,NA,"ASL","C_T","1733","ball",24.5833333333333,1.733,1
"30069","295","15","V2","ASL","adult",NA,NA,"ASL","C_T","233","birdy",24.5833333333333,0.233,1
"30069","295","16","V2","ASL","adult",NA,NA,"ASL","C_T","633","doll",24.5833333333333,0.633,1
"30069","295","17","V2","ASL","adult",NA,NA,"ASL","C_T","567","car",24.5833333333333,0.567,1
"30069","295","18","V2","ASL","adult",NA,NA,"ASL","C_T","867","shoe",24.5833333333333,0.867,1
"30069","295","20","V2","ASL","adult",NA,NA,"ASL","C_T","167","birdy",24.5833333333333,0.167,1
"30069","295","21","V2","ASL","adult",NA,NA,"ASL","C_T","100","book",24.5833333333333,0.1,1
"30069","295","22","V2","ASL","adult",NA,NA,"ASL","C_T","467","ball",24.5833333333333,0.467,1
"30069","295","23","V2","ASL","adult",NA,NA,"ASL","C_T","133","teddy",24.5833333333333,0.133,1
"30069","295","24","V2","ASL","adult",NA,NA,"ASL","C_T","267","car",24.5833333333333,0.267,1
"30069","295","26","V2","ASL","adult",NA,NA,"ASL","C_T","100","shoe",24.5833333333333,0.1,1
"30069","295","27","V2","ASL","adult",NA,NA,"ASL","C_T","233","doll",24.5833333333333,0.233,1
"30069","295","29","V2","ASL","adult",NA,NA,"ASL","C_T","33","kitty",24.5833333333333,0.033,1
"30069","295","30","V2","ASL","adult",NA,NA,"ASL","C_T","200","teddy",24.5833333333333,0.2,1
"30069","295","31","V2","ASL","adult",NA,NA,"ASL","C_T","200","birdy",24.5833333333333,0.2,1
"30069","295","33","V2","ASL","adult",NA,NA,"ASL","C_T","433","shoe",24.5833333333333,0.433,1
"30069","295","35","V2","ASL","adult",NA,NA,"ASL","C_T","200","doll",24.5833333333333,0.2,1
"30069","295","36","V2","ASL","adult",NA,NA,"ASL","C_T","67","ball",24.5833333333333,0.067,1
"30074","324","2","V2","ASL","adult",NA,NA,"ASL","C_T","1900","doll",27,1.9,1
"30074","324","3","V2","ASL","adult",NA,NA,"ASL","C_T","1467","car",27,1.467,1
"30074","324","4","V2","ASL","adult",NA,NA,"ASL","C_T","1067","ball",27,1.067,1
"30074","324","5","V2","ASL","adult",NA,NA,"ASL","C_T","433","teddy",27,0.433,1
"30074","324","6","V2","ASL","adult",NA,NA,"ASL","C_T","667","birdy",27,0.667,1
"30074","324","7","V2","ASL","adult",NA,NA,"ASL","C_D","200","book",27,0.2,0
"30074","324","8","V2","ASL","adult",NA,NA,"ASL","C_T","667","kitty",27,0.667,1
"30074","324","9","V2","ASL","adult",NA,NA,"ASL","C_T","700","shoe",27,0.7,1
"30074","324","11","V2","ASL","adult",NA,NA,"ASL","C_T","967","book",27,0.967,1
"30074","324","12","V2","ASL","adult",NA,NA,"ASL","C_T","267","kitty",27,0.267,1
"30074","324","13","V2","ASL","adult",NA,NA,"ASL","C_T","333","teddy",27,0.333,1
"30074","324","14","V2","ASL","adult",NA,NA,"ASL","C_T","967","ball",27,0.967,1
"30074","324","15","V2","ASL","adult",NA,NA,"ASL","C_T","67","birdy",27,0.067,1
"30074","324","16","V2","ASL","adult",NA,NA,"ASL","C_T","800","doll",27,0.8,1
"30074","324","17","V2","ASL","adult",NA,NA,"ASL","C_T","467","car",27,0.467,1
"30074","324","18","V2","ASL","adult",NA,NA,"ASL","C_T","400","shoe",27,0.4,1
"30074","324","20","V2","ASL","adult",NA,NA,"ASL","C_T","33","birdy",27,0.033,1
"30074","324","21","V2","ASL","adult",NA,NA,"ASL","C_T","767","book",27,0.767,1
"30074","324","22","V2","ASL","adult",NA,NA,"ASL","C_T","400","ball",27,0.4,1
"30074","324","24","V2","ASL","adult",NA,NA,"ASL","C_T","367","car",27,0.367,1
"30074","324","25","V2","ASL","adult",NA,NA,"ASL","C_T","167","kitty",27,0.167,1
"30074","324","26","V2","ASL","adult",NA,NA,"ASL","C_T","400","shoe",27,0.4,1
"30074","324","29","V2","ASL","adult",NA,NA,"ASL","C_T","233","kitty",27,0.233,1
"30074","324","30","V2","ASL","adult",NA,NA,"ASL","C_T","533","teddy",27,0.533,1
"30074","324","31","V2","ASL","adult",NA,NA,"ASL","C_T","367","birdy",27,0.367,1
"30074","324","32","V2","ASL","adult",NA,NA,"ASL","C_T","500","book",27,0.5,1
"30074","324","33","V2","ASL","adult",NA,NA,"ASL","C_T","133","shoe",27,0.133,1
"30074","324","34","V2","ASL","adult",NA,NA,"ASL","C_T","33","car",27,0.033,1
"30074","324","35","V2","ASL","adult",NA,NA,"ASL","C_T","100","doll",27,0.1,1
"30075","358","2","V2","ASL","adult",NA,NA,"ASL","C_T","1500","doll",29.8333333333333,1.5,1
"30075","358","3","V2","ASL","adult",NA,NA,"ASL","C_T","733","car",29.8333333333333,0.733,1
"30075","358","4","V2","ASL","adult",NA,NA,"ASL","C_T","300","ball",29.8333333333333,0.3,1
"30075","358","5","V2","ASL","adult",NA,NA,"ASL","C_T","500","teddy",29.8333333333333,0.5,1
"30075","358","6","V2","ASL","adult",NA,NA,"ASL","C_T","667","birdy",29.8333333333333,0.667,1
"30075","358","7","V2","ASL","adult",NA,NA,"ASL","C_T","1433","book",29.8333333333333,1.433,1
"30075","358","8","V2","ASL","adult",NA,NA,"ASL","C_T","1700","kitty",29.8333333333333,1.7,1
"30075","358","9","V2","ASL","adult",NA,NA,"ASL","C_T","733","shoe",29.8333333333333,0.733,1
"30075","358","11","V2","ASL","adult",NA,NA,"ASL","C_T","1633","book",29.8333333333333,1.633,1
"30075","358","12","V2","ASL","adult",NA,NA,"ASL","C_T","433","kitty",29.8333333333333,0.433,1
"30075","358","13","V2","ASL","adult",NA,NA,"ASL","C_T","667","teddy",29.8333333333333,0.667,1
"30075","358","14","V2","ASL","adult",NA,NA,"ASL","C_T","1267","ball",29.8333333333333,1.267,1
"30075","358","15","V2","ASL","adult",NA,NA,"ASL","C_T","100","birdy",29.8333333333333,0.1,1
"30075","358","16","V2","ASL","adult",NA,NA,"ASL","C_T","567","doll",29.8333333333333,0.567,1
"30075","358","17","V2","ASL","adult",NA,NA,"ASL","C_T","333","car",29.8333333333333,0.333,1
"30075","358","18","V2","ASL","adult",NA,NA,"ASL","C_T","633","shoe",29.8333333333333,0.633,1
"30075","358","20","V2","ASL","adult",NA,NA,"ASL","C_T","200","birdy",29.8333333333333,0.2,1
"30075","358","21","V2","ASL","adult",NA,NA,"ASL","C_T","233","book",29.8333333333333,0.233,1
"30075","358","22","V2","ASL","adult",NA,NA,"ASL","C_T","533","ball",29.8333333333333,0.533,1
"30075","358","23","V2","ASL","adult",NA,NA,"ASL","C_T","633","teddy",29.8333333333333,0.633,1
"30075","358","24","V2","ASL","adult",NA,NA,"ASL","C_T","200","car",29.8333333333333,0.2,1
"30075","358","27","V2","ASL","adult",NA,NA,"ASL","C_T","300","doll",29.8333333333333,0.3,1
"30075","358","29","V2","ASL","adult",NA,NA,"ASL","C_T","67","kitty",29.8333333333333,0.067,1
"30075","358","30","V2","ASL","adult",NA,NA,"ASL","C_T","33","teddy",29.8333333333333,0.033,1
"30075","358","31","V2","ASL","adult",NA,NA,"ASL","C_T","67","birdy",29.8333333333333,0.067,1
"30075","358","33","V2","ASL","adult",NA,NA,"ASL","C_T","167","shoe",29.8333333333333,0.167,1
"30075","358","34","V2","ASL","adult",NA,NA,"ASL","C_T","167","car",29.8333333333333,0.167,1
"30075","358","35","V2","ASL","adult",NA,NA,"ASL","C_T","667","doll",29.8333333333333,0.667,1
"30078","324","2","V2","ASL","adult",NA,NA,"ASL","C_T","733","doll",27,0.733,1
"30078","324","3","V2","ASL","adult",NA,NA,"ASL","C_T","1100","car",27,1.1,1
"30078","324","4","V2","ASL","adult",NA,NA,"ASL","C_T","1100","ball",27,1.1,1
"30078","324","5","V2","ASL","adult",NA,NA,"ASL","C_T","767","teddy",27,0.767,1
"30078","324","6","V2","ASL","adult",NA,NA,"ASL","C_T","867","birdy",27,0.867,1
"30078","324","7","V2","ASL","adult",NA,NA,"ASL","C_T","667","book",27,0.667,1
"30078","324","8","V2","ASL","adult",NA,NA,"ASL","C_T","800","kitty",27,0.8,1
"30078","324","9","V2","ASL","adult",NA,NA,"ASL","C_T","767","shoe",27,0.767,1
"30078","324","11","V2","ASL","adult",NA,NA,"ASL","C_T","667","book",27,0.667,1
"30078","324","12","V2","ASL","adult",NA,NA,"ASL","C_T","500","kitty",27,0.5,1
"30078","324","13","V2","ASL","adult",NA,NA,"ASL","C_T","567","teddy",27,0.567,1
"30078","324","14","V2","ASL","adult",NA,NA,"ASL","C_T","667","ball",27,0.667,1
"30078","324","15","V2","ASL","adult",NA,NA,"ASL","C_T","767","birdy",27,0.767,1
"30078","324","16","V2","ASL","adult",NA,NA,"ASL","C_T","467","doll",27,0.467,1
"30078","324","17","V2","ASL","adult",NA,NA,"ASL","C_T","567","car",27,0.567,1
"30078","324","18","V2","ASL","adult",NA,NA,"ASL","C_T","567","shoe",27,0.567,1
"30078","324","20","V2","ASL","adult",NA,NA,"ASL","C_T","467","birdy",27,0.467,1
"30078","324","21","V2","ASL","adult",NA,NA,"ASL","C_T","367","book",27,0.367,1
"30078","324","22","V2","ASL","adult",NA,NA,"ASL","C_T","1067","ball",27,1.067,1
"30078","324","23","V2","ASL","adult",NA,NA,"ASL","C_T","333","teddy",27,0.333,1
"30078","324","24","V2","ASL","adult",NA,NA,"ASL","C_T","733","car",27,0.733,1
"30078","324","25","V2","ASL","adult",NA,NA,"ASL","C_T","2367","kitty",27,2.367,1
"30078","324","26","V2","ASL","adult",NA,NA,"ASL","C_T","500","shoe",27,0.5,1
"30078","324","27","V2","ASL","adult",NA,NA,"ASL","C_T","1600","doll",27,1.6,1
"30078","324","29","V2","ASL","adult",NA,NA,"ASL","C_T","433","kitty",27,0.433,1
"30078","324","30","V2","ASL","adult",NA,NA,"ASL","C_T","367","teddy",27,0.367,1
"30078","324","31","V2","ASL","adult",NA,NA,"ASL","C_T","433","birdy",27,0.433,1
"30078","324","32","V2","ASL","adult",NA,NA,"ASL","C_T","367","book",27,0.367,1
"30078","324","33","V2","ASL","adult",NA,NA,"ASL","C_T","533","shoe",27,0.533,1
"30078","324","34","V2","ASL","adult",NA,NA,"ASL","C_T","167","car",27,0.167,1
"30078","324","35","V2","ASL","adult",NA,NA,"ASL","C_T","200","doll",27,0.2,1
"30079","325","2","V2","ASL","adult",NA,NA,"ASL","C_D","1533","doll",27.0833333333333,1.533,0
"30079","325","3","V2","ASL","adult",NA,NA,"ASL","C_T","1033","car",27.0833333333333,1.033,1
"30079","325","4","V2","ASL","adult",NA,NA,"ASL","no_shift",NA,"ball",27.0833333333333,NA,0
"30079","325","5","V2","ASL","adult",NA,NA,"ASL","C_T","2333","teddy",27.0833333333333,2.333,1
"30079","325","6","V2","ASL","adult",NA,NA,"ASL","C_T","700","birdy",27.0833333333333,0.7,1
"30079","325","7","V2","ASL","adult",NA,NA,"ASL","C_T","1900","book",27.0833333333333,1.9,1
"30079","325","8","V2","ASL","adult",NA,NA,"ASL","C_T","2000","kitty",27.0833333333333,2,1
"30079","325","9","V2","ASL","adult",NA,NA,"ASL","C_T","1500","shoe",27.0833333333333,1.5,1
"30079","325","11","V2","ASL","adult",NA,NA,"ASL","C_T","2167","book",27.0833333333333,2.167,1
"30079","325","12","V2","ASL","adult",NA,NA,"ASL","C_T","1833","kitty",27.0833333333333,1.833,1
"30079","325","13","V2","ASL","adult",NA,NA,"ASL","C_T","1200","teddy",27.0833333333333,1.2,1
"30079","325","14","V2","ASL","adult",NA,NA,"ASL","C_T","1667","ball",27.0833333333333,1.667,1
"30079","325","15","V2","ASL","adult",NA,NA,"ASL","C_T","1467","birdy",27.0833333333333,1.467,1
"30079","325","16","V2","ASL","adult",NA,NA,"ASL","no_shift",NA,"doll",27.0833333333333,NA,0
"30079","325","17","V2","ASL","adult",NA,NA,"ASL","C_T","1833","car",27.0833333333333,1.833,1
"30079","325","18","V2","ASL","adult",NA,NA,"ASL","C_T","2000","shoe",27.0833333333333,2,1
"30079","325","20","V2","ASL","adult",NA,NA,"ASL","C_T","1000","birdy",27.0833333333333,1,1
"30079","325","21","V2","ASL","adult",NA,NA,"ASL","C_T","2300","book",27.0833333333333,2.3,1
"30079","325","22","V2","ASL","adult",NA,NA,"ASL","C_T","1600","ball",27.0833333333333,1.6,1
"30079","325","23","V2","ASL","adult",NA,NA,"ASL","C_T","367","teddy",27.0833333333333,0.367,1
"30079","325","24","V2","ASL","adult",NA,NA,"ASL","C_T","1233","car",27.0833333333333,1.233,1
"30079","325","25","V2","ASL","adult",NA,NA,"ASL","C_T","600","kitty",27.0833333333333,0.6,1
"30079","325","26","V2","ASL","adult",NA,NA,"ASL","C_T","1067","shoe",27.0833333333333,1.067,1
"30079","325","27","V2","ASL","adult",NA,NA,"ASL","C_D","800","doll",27.0833333333333,0.8,0
"30079","325","29","V2","ASL","adult",NA,NA,"ASL","C_T","833","kitty",27.0833333333333,0.833,1
"30079","325","30","V2","ASL","adult",NA,NA,"ASL","C_T","467","teddy",27.0833333333333,0.467,1
"30079","325","31","V2","ASL","adult",NA,NA,"ASL","C_T","300","birdy",27.0833333333333,0.3,1
"30079","325","32","V2","ASL","adult",NA,NA,"ASL","C_T","433","book",27.0833333333333,0.433,1
"30079","325","33","V2","ASL","adult",NA,NA,"ASL","C_T","600","shoe",27.0833333333333,0.6,1
"30079","325","34","V2","ASL","adult",NA,NA,"ASL","C_T","433","car",27.0833333333333,0.433,1
"30079","325","35","V2","ASL","adult",NA,NA,"ASL","C_T","1133","doll",27.0833333333333,1.133,1
"30079","325","36","V2","ASL","adult",NA,NA,"ASL","C_T","733","ball",27.0833333333333,0.733,1
"30081","530","2","V2","ASL","adult",NA,NA,"ASL","C_T","2067","doll",44.1666666666667,2.067,1
"30081","530","3","V2","ASL","adult",NA,NA,"ASL","C_T","967","car",44.1666666666667,0.967,1
"30081","530","4","V2","ASL","adult",NA,NA,"ASL","C_T","567","ball",44.1666666666667,0.567,1
"30081","530","5","V2","ASL","adult",NA,NA,"ASL","C_T","1000","teddy",44.1666666666667,1,1
"30081","530","6","V2","ASL","adult",NA,NA,"ASL","C_T","533","birdy",44.1666666666667,0.533,1
"30081","530","7","V2","ASL","adult",NA,NA,"ASL","C_T","500","book",44.1666666666667,0.5,1
"30081","530","8","V2","ASL","adult",NA,NA,"ASL","C_T","1100","kitty",44.1666666666667,1.1,1
"30081","530","9","V2","ASL","adult",NA,NA,"ASL","C_T","600","shoe",44.1666666666667,0.6,1
"30081","530","11","V2","ASL","adult",NA,NA,"ASL","C_T","867","book",44.1666666666667,0.867,1
"30081","530","12","V2","ASL","adult",NA,NA,"ASL","C_T","367","kitty",44.1666666666667,0.367,1
"30081","530","13","V2","ASL","adult",NA,NA,"ASL","C_T","700","teddy",44.1666666666667,0.7,1
"30081","530","14","V2","ASL","adult",NA,NA,"ASL","C_T","833","ball",44.1666666666667,0.833,1
"30081","530","15","V2","ASL","adult",NA,NA,"ASL","C_T","400","birdy",44.1666666666667,0.4,1
"30081","530","16","V2","ASL","adult",NA,NA,"ASL","C_T","300","doll",44.1666666666667,0.3,1
"30081","530","17","V2","ASL","adult",NA,NA,"ASL","C_T","367","car",44.1666666666667,0.367,1
"30081","530","18","V2","ASL","adult",NA,NA,"ASL","C_T","1100","shoe",44.1666666666667,1.1,1
"30081","530","20","V2","ASL","adult",NA,NA,"ASL","C_T","200","birdy",44.1666666666667,0.2,1
"30081","530","21","V2","ASL","adult",NA,NA,"ASL","C_T","233","book",44.1666666666667,0.233,1
"30081","530","22","V2","ASL","adult",NA,NA,"ASL","C_T","333","ball",44.1666666666667,0.333,1
"30081","530","23","V2","ASL","adult",NA,NA,"ASL","C_T","967","teddy",44.1666666666667,0.967,1
"30081","530","24","V2","ASL","adult",NA,NA,"ASL","C_T","1433","car",44.1666666666667,1.433,1
"30081","530","25","V2","ASL","adult",NA,NA,"ASL","C_T","633","kitty",44.1666666666667,0.633,1
"30081","530","26","V2","ASL","adult",NA,NA,"ASL","C_T","433","shoe",44.1666666666667,0.433,1
"30081","530","27","V2","ASL","adult",NA,NA,"ASL","C_T","1033","doll",44.1666666666667,1.033,1
"30081","530","29","V2","ASL","adult",NA,NA,"ASL","C_T","333","kitty",44.1666666666667,0.333,1
"30081","530","30","V2","ASL","adult",NA,NA,"ASL","C_T","333","teddy",44.1666666666667,0.333,1
"30081","530","31","V2","ASL","adult",NA,NA,"ASL","C_T","167","birdy",44.1666666666667,0.167,1
"30081","530","32","V2","ASL","adult",NA,NA,"ASL","C_T","333","book",44.1666666666667,0.333,1
"30081","530","33","V2","ASL","adult",NA,NA,"ASL","C_T","233","shoe",44.1666666666667,0.233,1
"30081","530","34","V2","ASL","adult",NA,NA,"ASL","C_T","233","car",44.1666666666667,0.233,1
"30081","530","35","V2","ASL","adult",NA,NA,"ASL","C_T","1067","doll",44.1666666666667,1.067,1
"30081","530","36","V2","ASL","adult",NA,NA,"ASL","C_T","467","ball",44.1666666666667,0.467,1
"30085","19","2","V2","ASL","child","deaf",NA,"ASL","C_T","2967","doll",1.58333333333333,2.967,1
"30085","19","3","V2","ASL","child","deaf",NA,"ASL","C_D","2400","car",1.58333333333333,2.4,0
"30085","19","5","V2","ASL","child","deaf",NA,"ASL","C_D","933","teddy",1.58333333333333,0.933,0
"30085","19","6","V2","ASL","child","deaf",NA,"ASL","C_T","1533","birdy",1.58333333333333,1.533,1
"30085","19","9","V2","ASL","child","deaf",NA,"ASL","C_T","1367","shoe",1.58333333333333,1.367,1
"30085","19","13","V2","ASL","child","deaf",NA,"ASL","C_T","1000","teddy",1.58333333333333,1,1
"30085","19","14","V2","ASL","child","deaf",NA,"ASL","no_shift",NA,"ball",1.58333333333333,NA,0
"30085","19","15","V2","ASL","child","deaf",NA,"ASL","C_D","500","birdy",1.58333333333333,0.5,0
"30085","19","16","V2","ASL","child","deaf",NA,"ASL","C_T","1233","doll",1.58333333333333,1.233,1
"30085","19","17","V2","ASL","child","deaf",NA,"ASL","C_T","1700","car",1.58333333333333,1.7,1
"30085","19","18","V2","ASL","child","deaf",NA,"ASL","C_T","933","shoe",1.58333333333333,0.933,1
"30086","20","5","V2","ASL","child","hearing",NA,"ASL","C_D","2200","teddy",1.66666666666667,2.2,0
"30086","20","6","V2","ASL","child","hearing",NA,"ASL","C_D","1367","birdy",1.66666666666667,1.367,0
"30086","20","7","V2","ASL","child","hearing",NA,"ASL","C_T","1267","book",1.66666666666667,1.267,1
"30086","20","8","V2","ASL","child","hearing",NA,"ASL","no_shift",NA,"kitty",1.66666666666667,NA,0
"30086","20","9","V2","ASL","child","hearing",NA,"ASL","no_shift",NA,"shoe",1.66666666666667,NA,0
"30086","20","11","V2","ASL","child","hearing",NA,"ASL","C_D","1400","book",1.66666666666667,1.4,0
"30086","20","14","V2","ASL","child","hearing",NA,"ASL","C_T","1467","ball",1.66666666666667,1.467,1
"30086","20","15","V2","ASL","child","hearing",NA,"ASL","C_D","767","birdy",1.66666666666667,0.767,0
"30086","20","16","V2","ASL","child","hearing",NA,"ASL","no_shift",NA,"doll",1.66666666666667,NA,0
"30086","20","20","V2","ASL","child","hearing",NA,"ASL","C_D","800","birdy",1.66666666666667,0.8,0
"30087","25","2","V2","ASL","child","deaf",NA,"ASL","C_T","667","doll",2.08333333333333,0.667,1
"30087","25","5","V2","ASL","child","deaf",NA,"ASL","C_T","1100","teddy",2.08333333333333,1.1,1
"30087","25","7","V2","ASL","child","deaf",NA,"ASL","C_D","2033","book",2.08333333333333,2.033,0
"30087","25","8","V2","ASL","child","deaf",NA,"ASL","C_D","1267","kitty",2.08333333333333,1.267,0
"30087","25","11","V2","ASL","child","deaf",NA,"ASL","C_D","2067","book",2.08333333333333,2.067,0
"30088","22","2","V2","ASL","child","hearing",NA,"ASL","C_D","1633","doll",1.83333333333333,1.633,0
"30088","22","4","V2","ASL","child","hearing",NA,"ASL","no_shift",NA,"ball",1.83333333333333,NA,0
"30088","22","6","V2","ASL","child","hearing",NA,"ASL","C_T","1367","birdy",1.83333333333333,1.367,1
"30088","22","9","V2","ASL","child","hearing",NA,"ASL","C_D","267","shoe",1.83333333333333,0.267,0
"30088","22","12","V2","ASL","child","hearing",NA,"ASL","C_D","1533","kitty",1.83333333333333,1.533,0
"30088","22","14","V2","ASL","child","hearing",NA,"ASL","no_shift",NA,"ball",1.83333333333333,NA,0
"30088","22","15","V2","ASL","child","hearing",NA,"ASL","C_T","1300","birdy",1.83333333333333,1.3,1
"30088","22","16","V2","ASL","child","hearing",NA,"ASL","C_D","1900","doll",1.83333333333333,1.9,0
"30090","33","2","V2","ASL","child","deaf",NA,"ASL","C_T","1267","doll",2.75,1.267,1
"30090","33","3","V2","ASL","child","deaf",NA,"ASL","C_D","2533","car",2.75,2.533,0
"30090","33","4","V2","ASL","child","deaf",NA,"ASL","C_D","333","ball",2.75,0.333,0
"30090","33","6","V2","ASL","child","deaf",NA,"ASL","C_D","1433","birdy",2.75,1.433,0
"30090","33","9","V2","ASL","child","deaf",NA,"ASL","C_T","2367","shoe",2.75,2.367,1
"5112","26","2","Face","Trio_Face","child","hearing",NA,"English","no_shift",NA,"shoe",2.16666666666667,NA,0
"5112","26","3","Face","Trio_Face","child","hearing",NA,"English","no_shift",NA,"juice",2.16666666666667,NA,0
"5112","26","4","Face","Trio_Face","child","hearing",NA,"English","C_T","1033","banana",2.16666666666667,1.033,1
"5112","26","5","Face","Trio_Face","child","hearing",NA,"English","C_D","1800","book",2.16666666666667,1.8,0
"5112","26","6","Face","Trio_Face","child","hearing",NA,"English","C_T","2367","ball",2.16666666666667,2.367,1
"5112","26","7","Face","Trio_Face","child","hearing",NA,"English","C_T","367","cookie",2.16666666666667,0.367,1
"5112","26","13","Face","Trio_Face","child","hearing",NA,"English","C_T","1867","shoe",2.16666666666667,1.867,1
"5112","26","17","Face","Trio_Face","child","hearing",NA,"English","C_T","900","ball",2.16666666666667,0.9,1
"5112","26","20","Face","Trio_Face","child","hearing",NA,"English","C_C","500","cookie",2.16666666666667,0.5,0
"5112","26","23","Face","Trio_Face","child","hearing",NA,"English","C_T","933","banana",2.16666666666667,0.933,1
"5112","26","28","Face","Trio_Face","child","hearing",NA,"English","C_T","1467","shoe",2.16666666666667,1.467,1
"5112","26","29","Face","Trio_Face","child","hearing",NA,"English","no_shift","67","juice",2.16666666666667,0.067,0
"5112","26","30","Face","Trio_Face","child","hearing",NA,"English","C_D","400","ball",2.16666666666667,0.4,0
"5112","26","31","Face","Trio_Face","child","hearing",NA,"English","C_T","400","cookie",2.16666666666667,0.4,1
"5112","26","32","Face","Trio_Face","child","hearing",NA,"English","C_T","600","book",2.16666666666667,0.6,1
"5112","26","33","Face","Trio_Face","child","hearing",NA,"English","C_D","867","banana",2.16666666666667,0.867,0
"5112","26","34","Face","Trio_Face","child","hearing",NA,"English","C_D","100","shoe",2.16666666666667,0.1,0
"5007","26","2","Face","Trio_Face","child","hearing",NA,"English","no_shift",NA,"shoe",2.16666666666667,NA,0
"5007","26","3","Face","Trio_Face","child","hearing",NA,"English","no_shift",NA,"juice",2.16666666666667,NA,0
"5007","26","4","Face","Trio_Face","child","hearing",NA,"English","C_T","1033","banana",2.16666666666667,1.033,1
"5007","26","5","Face","Trio_Face","child","hearing",NA,"English","C_T","667","book",2.16666666666667,0.667,1
"5007","26","6","Face","Trio_Face","child","hearing",NA,"English","C_D","1533","ball",2.16666666666667,1.533,0
"5007","26","7","Face","Trio_Face","child","hearing",NA,"English","no_shift",NA,"cookie",2.16666666666667,NA,0
"5007","26","8","Face","Trio_Face","child","hearing",NA,"English","C_T","1467","banana",2.16666666666667,1.467,1
"5007","26","9","Face","Trio_Face","child","hearing",NA,"English","C_D","2700","juice",2.16666666666667,2.7,0
"5007","26","11","Face","Trio_Face","child","hearing",NA,"English","C_D","1667","book",2.16666666666667,1.667,0
"5007","26","12","Face","Trio_Face","child","hearing",NA,"English","no_shift",NA,"ball",2.16666666666667,NA,0
"5007","26","15","Face","Trio_Face","child","hearing",NA,"English","C_C","400","shoe",2.16666666666667,0.4,0
"5007","26","18","Face","Trio_Face","child","hearing",NA,"English","C_D","1167","juice",2.16666666666667,1.167,0
"5007","26","20","Face","Trio_Face","child","hearing",NA,"English","C_D","733","cookie",2.16666666666667,0.733,0
"5007","26","21","Face","Trio_Face","child","hearing",NA,"English","C_T","1267","book",2.16666666666667,1.267,1
"5007","26","22","Face","Trio_Face","child","hearing",NA,"English","C_C","1700","ball",2.16666666666667,1.7,0
"5007","26","23","Face","Trio_Face","child","hearing",NA,"English","C_D","2233","banana",2.16666666666667,2.233,0
"5007","26","24","Face","Trio_Face","child","hearing",NA,"English","C_D","2600","juice",2.16666666666667,2.6,0
"5007","26","25","Face","Trio_Face","child","hearing",NA,"English","C_T","1233","book",2.16666666666667,1.233,1
"5007","26","26","Face","Trio_Face","child","hearing",NA,"English","no_shift",NA,"cookie",2.16666666666667,NA,0
"5007","26","28","Face","Trio_Face","child","hearing",NA,"English","C_D","2900","shoe",2.16666666666667,2.9,0
"5007","26","29","Face","Trio_Face","child","hearing",NA,"English","C_T","1933","juice",2.16666666666667,1.933,1
"5007","26","30","Face","Trio_Face","child","hearing",NA,"English","C_C","67","ball",2.16666666666667,0.067,0
"5007","26","31","Face","Trio_Face","child","hearing",NA,"English","C_T","800","cookie",2.16666666666667,0.8,1
"5007","26","33","Face","Trio_Face","child","hearing",NA,"English","no_shift",NA,"banana",2.16666666666667,NA,0
"4976","26","2","Face","Trio_Face","child","hearing",NA,"English","C_T","900","shoe",2.16666666666667,0.9,1
"4976","26","3","Face","Trio_Face","child","hearing",NA,"English","C_T","100","juice",2.16666666666667,0.1,1
"4976","26","4","Face","Trio_Face","child","hearing",NA,"English","C_D","1267","banana",2.16666666666667,1.267,0
"4976","26","5","Face","Trio_Face","child","hearing",NA,"English","C_T","967","book",2.16666666666667,0.967,1
"4976","26","6","Face","Trio_Face","child","hearing",NA,"English","C_D","2367","ball",2.16666666666667,2.367,0
"4976","26","7","Face","Trio_Face","child","hearing",NA,"English","C_D","1300","cookie",2.16666666666667,1.3,0
"4976","26","8","Face","Trio_Face","child","hearing",NA,"English","C_T","133","banana",2.16666666666667,0.133,1
"4976","26","9","Face","Trio_Face","child","hearing",NA,"English","C_D","267","juice",2.16666666666667,0.267,0
"4976","26","12","Face","Trio_Face","child","hearing",NA,"English","C_T","167","ball",2.16666666666667,0.167,1
"4976","26","13","Face","Trio_Face","child","hearing",NA,"English","C_D","33","shoe",2.16666666666667,0.033,0
"4976","26","14","Face","Trio_Face","child","hearing",NA,"English","C_T","1367","cookie",2.16666666666667,1.367,1
"4976","26","15","Face","Trio_Face","child","hearing",NA,"English","C_T","1000","shoe",2.16666666666667,1,1
"4976","26","16","Face","Trio_Face","child","hearing",NA,"English","C_D","200","banana",2.16666666666667,0.2,0
"4976","26","17","Face","Trio_Face","child","hearing",NA,"English","C_T","833","ball",2.16666666666667,0.833,1
"4976","26","18","Face","Trio_Face","child","hearing",NA,"English","C_T","100","juice",2.16666666666667,0.1,1
"4976","26","23","Face","Trio_Face","child","hearing",NA,"English","C_D","1500","banana",2.16666666666667,1.5,0
"4976","26","26","Face","Trio_Face","child","hearing",NA,"English","C_D","400","cookie",2.16666666666667,0.4,0
"4976","26","30","Face","Trio_Face","child","hearing",NA,"English","C_T","833","ball",2.16666666666667,0.833,1
"4976","26","32","Face","Trio_Face","child","hearing",NA,"English","C_D","867","book",2.16666666666667,0.867,0
"4976","26","34","Face","Trio_Face","child","hearing",NA,"English","C_D","400","shoe",2.16666666666667,0.4,0
